"Time (s)","Acceleration x (m/s^2)","Acceleration y (m/s^2)","Acceleration z (m/s^2)","Absolute acceleration (m/s^2)"
1.184002700E-2,2.394201700E-3,6.471527100E0,7.264008045E0,9.728642331E0
1.384271900E-2,-1.915361360E-2,6.500257492E0,7.280767441E0,9.760291433E0
1.584041100E-2,-5.985504389E-2,6.512228489E0,7.299921036E0,9.782716885E0
1.784025700E-2,-8.140286058E-2,6.514622688E0,7.307103634E0,9.789826286E0
1.983821900E-2,-1.460463107E-1,6.512228489E0,7.326257229E0,9.803289978E0
2.183775700E-2,-2.202665508E-1,6.560112476E0,7.335834026E0,9.843680913E0
2.383591100E-2,-3.112462163E-1,6.567295074E0,7.371747017E0,9.877696740E0
2.583518000E-2,-4.094084799E-1,6.572083473E0,7.417236805E0,9.918432250E0
2.783352700E-2,-3.711012602E-1,6.557718277E0,7.331045628E0,9.843049077E0
2.983283400E-2,-3.495534360E-1,6.564900875E0,7.283161640E0,9.811450177E0
3.203914200E-2,-3.160346150E-1,6.569689274E0,7.194576263E0,9.747954793E0
3.385656500E-2,-2.801215947E-1,6.593631268E0,7.149086475E0,9.729536414E0
3.585133400E-2,-2.729389966E-1,6.588842869E0,7.134721279E0,9.715533633E0
3.785083400E-2,-2.705447972E-1,6.567295074E0,7.079654217E0,9.660438029E0
3.984883400E-2,-2.825157940E-1,6.543353081E0,7.062894821E0,9.632225494E0
4.184848800E-2,-2.944868207E-1,6.540958881E0,7.046135426E0,9.618674026E0
4.384595000E-2,-3.327940404E-1,6.562506676E0,7.007828236E0,9.606607222E0
4.584529600E-2,-3.567360640E-1,6.555324078E0,6.979097843E0,9.581614743E0
4.784325700E-2,-3.495534360E-1,6.576871872E0,6.950367451E0,9.575230489E0
4.984221900E-2,-3.208230138E-1,6.624756336E0,6.928819656E0,9.591603920E0
5.188741100E-2,-3.136404157E-1,6.643909931E0,6.924031258E0,9.601151928E0
5.388660300E-2,-3.112462163E-1,6.672640324E0,6.916848660E0,9.615809819E0
5.589010300E-2,-2.944868207E-1,6.706159115E0,6.931213856E0,9.648886883E0
5.788968000E-2,-2.657563984E-1,6.722918510E0,6.955155849E0,9.676903051E0
5.988737300E-2,-1.891419291E-1,6.768408298E0,7.022193432E0,9.754912924E0
6.188656500E-2,-1.197100878E-1,6.799532890E0,7.098807812E0,9.830618006E0
6.389268000E-2,-9.576806426E-2,6.816292286E0,7.127538681E0,9.862698398E0
6.589187300E-2,-2.394201700E-3,6.813898087E0,7.175422668E0,9.895246502E0
6.788956500E-2,9.097966552E-2,6.821080685E0,7.225700855E0,9.937110840E0
6.988860300E-2,1.005564705E-1,6.818686485E0,7.228095055E0,9.937301198E0
7.192964200E-2,5.746084079E-2,6.770802498E0,7.175422668E0,9.865787282E0
7.392906500E-2,-9.576806799E-3,6.746860504E0,7.115567684E0,9.805688239E0
7.592621900E-2,-2.633621916E-2,6.730101109E0,7.108384609E0,9.788977795E0
7.792533400E-2,-4.309562966E-2,6.739677906E0,7.110779285E0,9.797361765E0
7.992264200E-2,-6.464344263E-2,6.744466305E0,7.108384609E0,9.799037517E0
8.192144900E-2,-8.379705995E-2,6.746860504E0,7.103596210E0,9.797358202E0
8.391883400E-2,-1.268926859E-1,6.708553314E0,7.074865818E0,9.750616169E0
8.591810300E-2,-1.651999205E-1,6.663063526E0,6.993463039E0,9.660860823E0
8.791548800E-2,-1.819593310E-1,6.629544735E0,6.964732647E0,9.617248746E0
8.991402600E-2,-2.849099934E-1,6.555324078E0,6.883329868E0,9.509662325E0
9.209218000E-2,-4.644751251E-1,6.464344501E0,6.797138691E0,9.391729413E0
9.390968000E-2,-5.530605912E-1,6.452373505E0,6.775590897E0,9.372706752E0
9.590433400E-2,-6.727706790E-1,6.449979305E0,6.758831501E0,9.366784757E0
9.790325700E-2,-7.493851185E-1,6.483498096E0,6.734889507E0,9.378489340E0
9.990060300E-2,-7.565677166E-1,6.517016888E0,6.775590897E0,9.431465200E0
1.018994110E-1,-7.326257229E-1,6.600813866E0,6.876147270E0,9.559753418E0
1.038970650E-1,-6.919242740E-1,6.617573261E0,6.936002254E0,9.611407927E0
1.058963340E-1,-6.153098345E-1,6.651092529E0,7.015010834E0,9.686382969E0
1.078937190E-1,-5.578489900E-1,6.708553314E0,7.079654217E0,9.769206052E0
1.098926800E-1,-5.147533417E-1,6.732495308E0,7.122750282E0,9.814531861E0
1.119336030E-1,-4.668693244E-1,6.727706909E0,7.194576263E0,9.861132533E0
1.139327190E-1,-4.261679053E-1,6.722918510E0,7.266402245E0,9.908574769E0
1.159305650E-1,-3.998316824E-1,6.713341713E0,7.323863029E0,9.943228450E0
1.179298720E-1,-3.088520169E-1,6.718130112E0,7.493851185E0,1.006908473E1
1.199276800E-1,-2.729389966E-1,6.696582317E0,7.656657219E0,1.017561350E1
1.219270260E-1,-2.753331959E-1,6.689399719E0,7.702147007E0,1.020524108E1
1.239251030E-1,-2.322375625E-1,6.670246124E0,7.766790390E0,1.024056398E1
1.259243720E-1,-1.867477298E-1,6.665457726E0,7.797914982E0,1.026015007E1
1.279225260E-1,-1.628057212E-1,6.653486729E0,7.841010571E0,1.028478673E1
1.299217950E-1,-8.858546615E-2,6.636727333E0,7.910442352E0,1.032613651E1
1.319686420E-1,-2.394201700E-3,6.610390663E0,7.876923561E0,1.028315104E1
1.339672950E-1,1.436521020E-2,6.584054470E0,7.841010571E0,1.023872191E1
1.359649490E-1,-2.394201607E-2,6.524199486E0,7.747636795E0,1.012875254E1
1.379638340E-1,-1.436521020E-2,6.473921299E0,7.656657219E0,1.002677730E1
1.399616030E-1,-2.394201700E-3,6.466738701E0,7.575253963E0,9.960079707E0
1.419601800E-1,5.506663769E-2,6.469132900E0,7.460332394E0,9.874678336E0
1.439581030E-1,1.604115069E-1,6.447585106E0,7.405265808E0,9.820134787E0
1.459571420E-1,2.035071403E-1,6.435614109E0,7.381323814E0,9.795023500E0
1.479547570E-1,3.830722570E-1,6.454767704E0,7.388506413E0,9.818390778E0
1.499536800E-1,5.578489900E-1,6.454767704E0,7.400477409E0,9.835765730E0
1.519512950E-1,5.793967843E-1,6.452373505E0,7.402871609E0,9.837242120E0
1.539501410E-1,6.488286853E-1,6.423643112E0,7.445967197E0,9.855282695E0
1.559471410E-1,7.326257229E-1,6.402095318E0,7.417236805E0,9.825424506E0
1.579460650E-1,7.781155705E-1,6.402095318E0,7.395689011E0,9.812670597E0
1.599524110E-1,6.631938815E-1,6.318298340E0,7.302315235E0,9.679076807E0
1.619512950E-1,5.913678408E-1,6.289567947E0,7.283161640E0,9.641204508E0
1.639492570E-1,7.134721279E-1,6.270414352E0,7.323863029E0,9.667787146E0
1.659483720E-1,7.996633649E-1,6.265625954E0,7.290344238E0,9.646069106E0
1.679458720E-1,8.116343617E-1,6.263231754E0,7.278373241E0,9.636469239E0
1.699454110E-1,8.690952063E-1,6.301538944E0,7.264008045E0,9.655595912E0
1.719897570E-1,9.289502501E-1,6.358999729E0,7.242460251E0,9.682616207E0
1.739887950E-1,9.097966552E-1,6.368576527E0,7.244854450E0,9.688880892E0
1.759862950E-1,8.547300100E-1,6.351817131E0,7.225700855E0,9.658514229E0
1.779856800E-1,8.259995580E-1,6.332663536E0,7.129932880E0,9.571877852E0
1.799834110E-1,7.805097699E-1,6.335057735E0,7.082048416E0,9.534021281E0
1.819826030E-1,7.230489254E-1,6.342240334E0,6.967126846E0,9.449215242E0
1.839801800E-1,6.727706790E-1,6.351817131E0,6.919242859E0,9.416693846E0
1.859791030E-1,5.889736414E-1,6.344634533E0,6.842628479E0,9.350018279E0
1.879764880E-1,5.746083856E-1,6.339846134E0,6.811503887E0,9.323111552E0
1.899747950E-1,5.386953950E-1,6.366182327E0,6.806715488E0,9.335408180E0
1.920154490E-1,5.315127969E-1,6.385335922E0,6.789956093E0,9.335872987E0
1.940146410E-1,5.554547906E-1,6.426037312E0,6.684611320E0,9.289053453E0
1.960124110E-1,5.626373887E-1,6.445190907E0,6.533776283E0,9.194959444E0
1.980112950E-1,5.506663918E-1,6.459556103E0,6.507440090E0,9.185634167E0
2.000088720E-1,5.434837937E-1,6.481103897E0,6.430825710E0,9.146343623E0
2.020080260E-1,5.123591423E-1,6.490680695E0,6.366182327E0,9.106026861E0
2.040054870E-1,4.812345505E-1,6.485892296E0,6.318298340E0,9.067484738E0
2.060046410E-1,3.926490843E-1,6.469132900E0,6.320692539E0,9.052900527E0
2.080107950E-1,3.160346150E-1,6.440402508E0,6.356605530E0,9.054562176E0
2.100100640E-1,2.753331959E-1,6.442796707E0,6.375759125E0,9.068392481E0
2.120077950E-1,2.226607651E-1,6.438008308E0,6.373364925E0,9.061860144E0
2.140069490E-1,1.963245422E-1,6.414066315E0,6.339846134E0,9.020667327E0
2.160045640E-1,1.580173075E-1,6.366182327E0,6.311115742E0,8.965680610E0
2.180042180E-1,1.077390760E-1,6.354211330E0,6.344634533E0,8.980088902E0
2.200019870E-1,7.182604820E-2,6.344634533E0,6.354211330E0,8.979729838E0
2.220009100E-1,0.000000000E0,6.347028732E0,6.442796707E0,9.044025826E0
2.239988720E-1,-7.182605099E-3,6.337451935E0,6.677428722E0,9.206052518E0
2.259983720E-1,-1.436521020E-2,6.344634533E0,6.775590897E0,9.282414864E0
2.279962950E-1,1.675941236E-2,6.370970726E0,7.077260017E0,9.522455472E0
2.299956410E-1,5.027823523E-2,6.380547523E0,7.381323814E0,9.756938857E0
2.320359100E-1,4.309562966E-2,6.385335922E0,7.529764175E0,9.872776743E0
2.340352570E-1,5.746084079E-2,6.404489517E0,7.745242596E0,1.005035176E1
2.360332180E-1,1.029506698E-1,6.409277916E0,7.946355343E0,1.020950564E1
2.380328720E-1,1.101332754E-1,6.402095318E0,8.010998726E0,1.025548899E1
2.400308330E-1,1.460463107E-1,6.385335922E0,8.157045364E0,1.036007883E1
2.420300640E-1,2.585737705E-1,6.342240334E0,8.276755333E0,1.043051061E1
2.440277950E-1,3.471592367E-1,6.320692539E0,8.360552788E0,1.048668282E1
2.460271800E-1,4.788403511E-1,6.277596951E0,8.473079681E0,1.055606891E1
2.480252950E-1,5.339069963E-1,6.217741966E0,8.540117264E0,1.057728579E1
2.500246410E-1,5.339069963E-1,6.184223175E0,8.552088737E0,1.056730310E1
2.521838720E-1,4.884171486E-1,6.112396717E0,8.566453934E0,1.053489810E1
2.540535260E-1,5.291185975E-1,6.069301128E0,8.504204750E0,1.046125619E1
2.560569100E-1,5.746083856E-1,6.050147533E0,8.485051155E0,1.043698007E1
2.580562950E-1,7.374141216E-1,6.052541733E0,8.489839554E0,1.045248376E1
2.600624490E-1,8.882488012E-1,6.064512730E0,8.468291283E0,1.045367198E1
2.620616800E-1,9.744400978E-1,6.062118530E0,8.427590370E0,1.042703668E1
2.640592950E-1,1.046266198E0,6.038176537E0,8.271966934E0,1.029464355E1
2.660584100E-1,1.170764685E0,6.030993938E0,8.097189903E0,1.016405737E1
2.680564100E-1,1.233013868E0,6.019022942E0,8.015787125E0,1.009959423E1
2.700554490E-1,1.364694953E0,6.021417141E0,7.893682957E0,1.002148129E1
2.722185260E-1,1.455674648E0,6.016628742E0,7.869740963E0,1.001257374E1
2.740965260E-1,1.414973259E0,5.978321552E0,7.757213593E0,9.895293863E0
2.760918330E-1,1.333570361E0,5.949591160E0,7.668628216E0,9.797137520E0
2.780912180E-1,1.343147159E0,5.949591160E0,7.637503624E0,9.774105630E0
2.800893720E-1,1.309628367E0,5.956773758E0,7.556100368E0,9.710454822E0
2.820888720E-1,1.228225470E0,5.954379559E0,7.438784599E0,9.607220724E0
2.840864870E-1,1.216254473E0,5.968744755E0,7.400477409E0,9.585001553E0
2.860857180E-1,1.369483352E0,6.196194172E0,7.508216381E0,9.830646982E0
2.880826790E-1,1.374271750E0,6.193799973E0,7.381323814E0,9.733227738E0
2.900814490E-1,1.233013868E0,6.165069580E0,7.338228226E0,9.663229254E0
2.921259100E-1,1.024718285E0,6.141127586E0,7.314286232E0,9.605325537E0
2.941245640E-1,9.002198577E-1,6.179434776E0,7.242460251E0,9.562899165E0
2.961217180E-1,8.571242094E-1,6.205770969E0,7.199364662E0,9.543432652E0
2.981206790E-1,7.757213712E-1,6.217741966E0,7.137115479E0,9.497393124E0
3.001181410E-1,7.709329724E-1,6.258443356E0,7.024587631E0,9.439665369E0
3.021171410E-1,8.020575643E-1,6.308721542E0,7.005434036E0,9.461467638E0
3.041231790E-1,9.289502501E-1,6.399701118E0,7.060500622E0,9.574434292E0
3.061220260E-1,9.600749016E-1,6.461950302E0,7.072471619E0,9.628000848E0
3.081193720E-1,1.000776291E0,6.473921299E0,7.074865818E0,9.641936347E0
3.101181790E-1,9.696516991E-1,6.500257492E0,7.082048416E0,9.661727674E0
3.121592560E-1,8.834604025E-1,6.533776283E0,7.141903877E0,9.719955030E0
3.141578720E-1,8.547300100E-1,6.552929878E0,7.139509678E0,9.728517452E0
3.161551020E-1,8.427590132E-1,6.579266071E0,7.182605267E0,9.776850373E0
3.181541410E-1,8.906430602E-1,6.605602264E0,7.314286232E0,9.895757142E0
3.201517950E-1,9.720458984E-1,6.655880928E0,7.474697590E0,1.005568139E1
3.221506410E-1,1.113303781E0,6.794744492E0,7.678205013E0,1.031323568E1
3.241482950E-1,1.000776291E0,6.797138691E0,7.599195957E0,1.024453155E1
3.261476790E-1,8.595184088E-1,6.782773495E0,7.618350029E0,1.023640783E1
3.281453720E-1,6.488286853E-1,6.785167694E0,7.702147007E0,1.028506431E1
3.301447180E-1,4.501099288E-1,6.792350292E0,7.742848396E0,1.030971982E1
3.323232180E-1,4.118026793E-1,6.816292286E0,7.831433773E0,1.039051379E1
3.341408720E-1,3.447650373E-1,6.849811077E0,7.917624950E0,1.047509234E1
3.361360250E-1,3.399766386E-1,6.871358871E0,7.951143742E0,1.051436368E1
3.381351790E-1,2.537853718E-1,6.938396454E0,8.037335396E0,1.062094688E1
3.401326020E-1,2.633621991E-1,6.995857239E0,8.149862289E0,1.074391146E1
3.421317950E-1,2.418143749E-1,7.019799232E0,8.224082947E0,1.081534076E1
3.441293720E-1,1.149216816E-1,7.055712223E0,8.365341187E0,1.094418636E1
3.461288720E-1,3.351882473E-2,7.060500622E0,8.499416351E0,1.104951903E1
3.481267180E-1,4.788403399E-3,7.065289021E0,8.552088737E0,1.109308585E1
3.501261790E-1,-4.548983276E-2,7.065289021E0,8.623914719E0,1.114864491E1
3.521658720E-1,-4.070143029E-2,7.070077419E0,8.633491516E0,1.115906927E1
3.541652560E-1,-1.221042871E-1,7.079654217E0,8.643068314E0,1.117313936E1
3.561638710E-1,-1.891419291E-1,7.077260017E0,8.611943245E0,1.114849544E1
3.581633330E-1,-1.867477298E-1,7.094019413E0,8.631096840E0,1.117389005E1
3.601615250E-1,-2.370259613E-1,7.098807812E0,8.664615631E0,1.120378586E1
3.621607180E-1,-3.734954596E-1,7.091625214E0,8.755595207E0,1.127346861E1
3.641582180E-1,-3.591302633E-1,7.089231014E0,8.865729332E0,1.135725880E1
3.661573710E-1,-4.046200812E-1,7.105990410E0,8.925583839E0,1.141599159E1
3.681551410E-1,-4.285621047E-1,7.139509678E0,9.023746490E0,1.151452407E1
3.701541790E-1,-4.501099288E-1,7.151480675E0,9.083600998E0,1.156970535E1
3.721996790E-1,-4.548983276E-1,7.144298077E0,9.102754593E0,1.158050382E1
3.741978710E-1,-4.979939461E-1,7.137115479E0,9.057265282E0,1.154211721E1
3.761957180E-1,-4.477157295E-1,7.158663273E0,8.966285706E0,1.148221183E1
3.781947560E-1,-3.950432837E-1,7.149086475E0,8.939949036E0,1.145374111E1
3.801925640E-1,-3.998316824E-1,7.120356083E0,8.918401718E0,1.141916045E1
3.821919100E-1,-2.466027737E-1,7.113173485E0,8.870517731E0,1.137295629E1
3.841898330E-1,-1.939303428E-1,7.079654217E0,8.834604263E0,1.132295656E1
3.861893330E-1,-1.580173075E-1,7.031770229E0,8.765172005E0,1.123828289E1
3.881874480E-1,-6.464344263E-2,7.022193432E0,8.714894295E0,1.119217414E1
3.901867560E-1,1.484405100E-1,6.988674641E0,8.566453934E0,1.105657003E1
3.921845640E-1,3.711012602E-1,6.931213856E0,8.389283180E0,1.088850375E1
3.941844870E-1,3.830722570E-1,6.900089264E0,8.288725853E0,1.079170758E1
3.961827560E-1,4.548983276E-1,6.823474884E0,8.099584579E0,1.060047227E1
3.981818330E-1,6.392518282E-1,6.722918510E0,7.893682957E0,1.038828700E1
4.001880640E-1,7.469909191E-1,6.694188118E0,7.771578789E0,1.028433697E1
4.021875640E-1,8.092401624E-1,6.588842869E0,7.544129372E0,1.004896054E1
4.041857940E-1,8.212111592E-1,6.488286495E0,7.410054207E0,9.883377599E0
4.061852940E-1,8.475474119E-1,6.442796707E0,7.347805023E0,9.809087862E0
4.081829870E-1,9.911994934E-1,6.385335922E0,7.213729858E0,9.684672929E0
4.101825250E-1,1.151610970E0,6.308721542E0,7.074865818E0,9.548816768E0
4.122642940E-1,1.235408068E0,6.260837555E0,7.003039837E0,9.474538877E0
4.142496400E-1,1.323993564E0,6.189011574E0,6.885724068E0,9.352540786E0
4.162478710E-1,1.458068848E0,6.155492783E0,6.825869083E0,9.306371200E0
4.182475250E-1,1.537077546E0,6.138733387E0,6.763619900E0,9.262462368E0
4.202455250E-1,1.654393315E0,6.124367714E0,6.663063526E0,9.200071342E0
4.222454100E-1,1.709460020E0,6.095637321E0,6.586448669E0,9.135663851E0
4.242435640E-1,1.750161409E0,6.098031521E0,6.574477673E0,9.136345553E0
4.262430640E-1,1.802833915E0,6.110002518E0,6.536170483E0,9.127095128E0
4.282411400E-1,1.790862918E0,6.124367714E0,6.488286495E0,9.100161072E0
4.302408330E-1,1.781286120E0,6.119579315E0,6.454767704E0,9.071177286E0
4.322666020E-1,1.771709204E0,6.112396717E0,6.342240334E0,8.984673593E0
4.342660630E-1,1.826775908E0,6.114790916E0,6.299144745E0,8.966995187E0
4.362642560E-1,1.831564307E0,6.119579315E0,6.268020153E0,8.949410899E0
4.382637560E-1,1.836352706E0,6.138733387E0,6.220136166E0,8.930080222E0
4.402621400E-1,1.889025092E0,6.160281181E0,6.136339188E0,8.897872704E0
4.422616020E-1,1.920149803E0,6.184223175E0,6.105214119E0,8.899732074E0
4.442594480E-1,1.977610588E0,6.205770969E0,6.007051945E0,8.860429449E0
4.462591400E-1,1.996764183E0,6.222530365E0,6.007051945E0,8.876464635E0
4.482659480E-1,1.977610588E0,6.203376770E0,5.963956356E0,8.829586763E0
4.502652560E-1,1.941697598E0,6.200982571E0,5.896918774E0,8.774737912E0
4.523117560E-1,1.893813491E0,6.189011574E0,5.853823185E0,8.726834459E0
4.543109480E-1,1.843535304E0,6.150704384E0,5.781997204E0,8.640675813E0
4.563089480E-1,1.793257117E0,6.105214119E0,5.686229229E0,8.533616664E0
4.583078330E-1,1.762132406E0,6.095637321E0,5.650316238E0,8.496350897E0
4.603051790E-1,1.663970232E0,6.124367714E0,5.722142220E0,8.545149993E0
4.623039100E-1,1.685518026E0,6.107608318E0,5.918466568E0,8.670184364E0
4.643015630E-1,1.678335428E0,6.110002518E0,5.889736176E0,8.650892023E0
4.663009100E-1,1.786074519E0,6.119579315E0,5.796362400E0,8.616097159E0
4.682981790E-1,1.807622313E0,6.095637321E0,5.698200226E0,8.537785345E0
4.702966020E-1,1.786074519E0,6.093243122E0,5.659893036E0,8.506001594E0
4.723234480E-1,1.814804912E0,6.057330132E0,5.559336185E0,8.419678379E0
4.743220630E-1,1.855506301E0,6.071695328E0,5.489904404E0,8.393297215E0
4.763193710E-1,1.891419291E0,6.105214119E0,5.480327606E0,8.419328776E0
4.783185630E-1,1.905784607E0,6.141127586E0,5.444414616E0,8.425385066E0
4.803162170E-1,1.934514999E0,6.150704384E0,5.384559631E0,8.400416366E0
4.823151790E-1,1.898601890E0,6.162675381E0,5.396530628E0,8.408674081E0
4.843124860E-1,1.800439715E0,6.193799973E0,5.451597214E0,8.445392439E0
4.863115250E-1,2.037465572E0,6.279991150E0,5.051765442E0,8.313235765E0
4.883097170E-1,2.121262789E0,6.320692539E0,4.910507679E0,8.280337895E0
4.903082560E-1,1.956062794E0,6.368576527E0,5.114014626E0,8.398695983E0
4.923474480E-1,1.802833915E0,6.414066315E0,5.449203014E0,8.607221985E0
4.943463320E-1,1.920149803E0,6.438008308E0,5.336675644E0,8.579920348E0
4.963491790E-1,1.984793186E0,6.438008308E0,4.953603268E0,8.362149263E0
4.983483710E-1,1.388636947E0,6.392518520E0,4.814739704E0,8.122458004E0
5.003466400E-1,1.132457376E0,6.349422932E0,4.608838081E0,7.927106643E0
5.023461020E-1,7.374141216E-1,6.294356346E0,3.660734415E0,7.318721053E0
5.043436020E-1,3.327940404E-1,6.291962147E0,3.469198227E0,7.192696008E0
5.063429860E-1,-3.184288144E-1,6.435614109E0,4.015076160E0,7.592059170E0
5.083406020E-1,2.035071403E-1,6.675034523E0,4.328716755E0,7.958347177E0
5.103392940E-1,4.501099288E-1,6.756437302E0,4.522646904E0,8.142872895E0
5.125016400E-1,8.930372596E-1,6.792350292E0,5.293580055E0,8.657686056E0
5.143802170E-1,1.429338455E0,6.687005520E0,5.758055210E0,8.939477113E0
5.163743710E-1,1.692700624E0,6.612784863E0,5.767632008E0,8.936427587E0
5.183731020E-1,1.814804912E0,6.469132900E0,6.095637321E0,9.071934287E0
5.203709860E-1,1.742978811E0,6.404489517E0,6.540958881E0,9.318776969E0
5.223697940E-1,1.853112102E0,6.387730122E0,6.473921299E0,9.281636577E0
5.243674090E-1,1.716642618E0,6.385335922E0,6.330269337E0,9.153779907E0
5.263664090E-1,1.355118155E0,6.392518520E0,6.665457726E0,9.334289739E0
5.283642940E-1,1.391031146E0,6.428431511E0,6.545747280E0,9.279359180E0
5.303636790E-1,1.335964561E0,6.505045891E0,6.277596951E0,9.138306562E0
5.323963320E-1,1.003170490E0,6.545747280E0,6.667851925E0,9.397521364E0
5.343949860E-1,9.768342972E-1,6.574477673E0,6.780379295E0,9.494814653E0
5.363930630E-1,8.667010069E-1,6.643909931E0,6.998251438E0,9.688561968E0
5.383926020E-1,7.924807668E-1,6.689399719E0,7.254431248E0,9.899639746E0
5.403904860E-1,8.954314590E-1,6.706159115E0,7.285555840E0,9.942519372E0
5.423897550E-1,1.132457376E0,6.730101109E0,7.259219646E0,9.963583217E0
5.443961020E-1,1.300051570E0,6.746860504E0,7.201758862E0,9.953672259E0
5.463958710E-1,1.364694953E0,6.756437302E0,7.156269073E0,9.935996396E0
5.483939090E-1,1.364694953E0,6.758831501E0,7.122750282E0,9.913514370E0
5.503934480E-1,1.304839969E0,6.763619900E0,7.108384609E0,9.898398519E0
5.524192550E-1,1.242590666E0,6.766014099E0,7.113173485E0,9.895464384E0
5.544187550E-1,1.154005170E0,6.780379295E0,7.103596210E0,9.887686809E0
5.564164860E-1,1.106121182E0,6.821080685E0,7.024587631E0,9.853703728E0
5.584159090E-1,1.103726983E0,6.849811077E0,6.959944248E0,9.827458928E0
5.604137550E-1,1.120486379E0,6.902483463E0,6.813898087E0,9.763655812E0
5.624132940E-1,1.127668977E0,6.912060261E0,6.756437302E0,9.731272239E0
5.644110250E-1,1.091755986E0,6.950367451E0,6.658275127E0,9.686700496E0
5.664103320E-1,1.108515382E0,6.979097843E0,6.548141479E0,9.634042240E0
5.684075250E-1,1.144428372E0,6.991068840E0,6.469132900E0,9.593458204E0
5.704073320E-1,1.201889277E0,6.995857239E0,6.318298340E0,9.503023216E0
5.725726400E-1,1.309628367E0,7.026981831E0,6.117185116E0,9.408164213E0
5.744522550E-1,1.326387763E0,7.043741226E0,6.035782337E0,9.370392915E0
5.764467550E-1,1.309628367E0,7.046135426E0,5.954379559E0,9.317606282E0
5.784457940E-1,1.312022567E0,7.031770229E0,5.925649166E0,9.288730474E0
5.804427550E-1,1.280897856E0,7.012616634E0,5.925649166E0,9.269887239E0
5.824419860E-1,1.235408068E0,6.993463039E0,5.978321552E0,9.283053752E0
5.844395240E-1,1.187524080E0,6.952761650E0,6.028599739E0,9.278745757E0
5.864388710E-1,1.225831270E0,6.945579052E0,6.023811340E0,9.275237665E0
5.884364860E-1,1.168370485E0,6.974309444E0,6.093243122E0,9.334543029E0
5.904354480E-1,1.180341482E0,6.964732647E0,6.129156113E0,9.352393357E0
5.924718320E-1,1.204283476E0,6.974309444E0,6.165069580E0,9.386126669E0
5.944709090E-1,1.314416766E0,6.940790653E0,6.196194172E0,9.396546629E0
5.964690630E-1,1.307234168E0,6.940790653E0,6.217741966E0,9.409768925E0
5.984683710E-1,1.331176162E0,6.945579052E0,6.227318764E0,9.422982401E0
6.004657940E-1,1.443703651E0,6.921637058E0,6.217741966E0,9.415606988E0
6.024650630E-1,1.462857246E0,6.900089264E0,6.248866558E0,9.423349534E0
6.044621780E-1,1.503558636E0,6.892906666E0,6.241683960E0,9.419738294E0
6.064612170E-1,1.493981838E0,6.883329868E0,6.258443356E0,9.422331189E0
6.084589470E-1,1.434126854E0,6.897695065E0,6.313509941E0,9.460196870E0
6.104581780E-1,1.436521053E0,6.890512466E0,6.330269337E0,9.466523367E0
6.125034090E-1,1.453280449E0,6.883329868E0,6.366182327E0,9.487915027E0
6.145025630E-1,1.486799240E0,6.840234280E0,6.382941723E0,9.473189643E0
6.164999090E-1,1.477222443E0,6.830657482E0,6.428431511E0,9.495514703E0
6.184989090E-1,1.450886250E0,6.821080685E0,6.550535679E0,9.567744264E0
6.204962550E-1,1.477222443E0,6.828263283E0,6.619967937E0,9.624517707E0
6.224952940E-1,1.484405041E0,6.816292286E0,6.770802498E0,9.721577306E0
6.244934470E-1,1.465251446E0,6.809109688E0,6.919242859E0,9.817680901E0
6.264929470E-1,1.458068848E0,6.806715488E0,6.955155849E0,9.840301489E0
6.284907170E-1,1.386242747E0,6.806715488E0,7.086836815E0,9.923522597E0
6.304899470E-1,1.326387763E0,6.813898087E0,7.189787865E0,9.994076304E0
6.324872170E-1,1.295263171E0,6.813898087E0,7.252037048E0,1.003488690E1
6.344862550E-1,1.304839969E0,6.825869083E0,7.331045628E0,1.010145168E1
6.364837170E-1,1.333570361E0,6.878541470E0,7.429207802E0,1.021204540E1
6.384829470E-1,1.333570361E0,6.897695065E0,7.467514992E0,1.025282338E1
6.404896400E-1,1.247379065E0,6.952761650E0,7.560888767E0,1.034716812E1
6.424886010E-1,1.197100878E0,6.967126846E0,7.639897823E0,1.040874372E1
6.444866010E-1,1.182735682E0,6.986280441E0,7.663839817E0,1.043750060E1
6.464856780E-1,1.173158884E0,7.003039837E0,7.709329605E0,1.048106062E1
6.484835630E-1,1.144428372E0,7.029376030E0,7.754819393E0,1.052896327E1
6.504824860E-1,1.163581967E0,7.043741226E0,7.752425194E0,1.053889510E1
6.525213700E-1,1.113303781E0,7.062894821E0,7.781155586E0,1.056741741E1
6.545204470E-1,1.197100878E0,7.048529625E0,7.730877399E0,1.053001832E1
6.565178700E-1,1.189918280E0,7.055712223E0,7.697358608E0,1.050943909E1
6.585170240E-1,1.182735682E0,7.038952827E0,7.663839817E0,1.047282967E1
6.605147550E-1,1.213860273E0,7.022193432E0,7.606379032E0,1.042313098E1
6.625141010E-1,1.228225470E0,7.015010834E0,7.608773232E0,1.042172466E1
6.645114860E-1,1.300051570E0,6.981492043E0,7.599195957E0,1.040092036E1
6.665108320E-1,1.357512355E0,6.938396454E0,7.606379032E0,1.038466115E1
6.685086400E-1,1.374271750E0,6.924031258E0,7.592013359E0,1.036674966E1
6.705077930E-1,1.414973259E0,6.904877663E0,7.496245384E0,1.028946936E1
6.725533320E-1,1.472434044E0,6.888118267E0,7.328651428E0,1.016481023E1
6.745526010E-1,1.450886250E0,6.861782074E0,7.225700855E0,1.006975059E1
6.765507550E-1,1.381454349E0,6.845022678E0,6.993463039E0,9.882877965E0
6.785502930E-1,1.338358760E0,6.840234280E0,6.892906666E0,9.802661448E0
6.805483700E-1,1.266532660E0,6.797138691E0,6.768408298E0,9.675564596E0
6.825475240E-1,1.259350061E0,6.777985096E0,6.660669327E0,9.586008576E0
6.845451780E-1,1.271321058E0,6.768408298E0,6.610390663E0,9.545934886E0
6.865439860E-1,1.304839969E0,6.732495308E0,6.517016888E0,9.460476179E0
6.885495240E-1,1.333570361E0,6.725312710E0,6.507440090E0,9.452778294E0
6.905479470E-1,1.343147159E0,6.713341713E0,6.502651691E0,9.442323881E0
6.925449860E-1,1.297657371E0,6.701370716E0,6.478709698E0,9.410949127E0
6.945435630E-1,1.254561663E0,6.698976517E0,6.483498096E0,9.406697556E0
6.965407930E-1,1.240196466E0,6.701370716E0,6.488286495E0,9.409799062E0
6.985393700E-1,1.264138460E0,6.663063526E0,6.473921299E0,9.375826288E0
7.005369090E-1,1.278503656E0,6.639121532E0,6.461950302E0,9.352502768E0
7.025356010E-1,1.283292055E0,6.636727333E0,6.483498096E0,9.366361928E0
7.045331780E-1,1.319205165E0,6.624756336E0,6.528987885E0,9.394433542E0
7.065321010E-1,1.352723956E0,6.610390663E0,6.588842869E0,9.430799392E0
7.085292160E-1,1.343147159E0,6.605602264E0,6.648698330E0,9.468010089E0
7.105278320E-1,1.312022567E0,6.600813866E0,6.761225700E0,9.539723260E0
7.125644470E-1,1.393425345E0,6.572083473E0,6.770802498E0,9.538222153E0
7.145629090E-1,1.412579060E0,6.572083473E0,6.766014099E0,9.537641615E0
7.165599470E-1,1.508347034E0,6.540958881E0,6.770802498E0,9.534307543E0
7.185588320E-1,1.572990537E0,6.531382084E0,6.794744492E0,9.555197741E0
7.205564470E-1,1.601720929E0,6.533776283E0,6.842628479E0,9.595692104E0
7.225552930E-1,1.589749932E0,6.560112476E0,6.895300865E0,9.649225594E0
7.245528320E-1,1.599326730E0,6.548141479E0,6.957550049E0,9.687285766E0
7.265516390E-1,1.594538331E0,6.569689274E0,7.034164429E0,9.756169271E0
7.285491390E-1,1.640028119E0,6.603208065E0,7.204153061E0,9.909181112E0
7.305482550E-1,1.649604917E0,6.629544735E0,7.261613846E0,9.970110101E0
7.327155620E-1,1.675941229E0,6.675034523E0,7.386112213E0,1.009551972E1
7.345846780E-1,1.731007814E0,6.754043102E0,7.546523571E0,1.027441017E1
7.365873320E-1,1.769315004E0,6.780379295E0,7.611167431E0,1.034571837E1
7.385866390E-1,1.932120800E0,6.809109688E0,7.702147007E0,1.046040793E1
7.405928320E-1,2.130839586E0,6.773196697E0,7.766790390E0,1.052329339E1
7.425919080E-1,2.231395960E0,6.768408298E0,7.785943985E0,1.055516000E1
7.445895240E-1,2.504334927E0,6.751648903E0,7.752425194E0,1.058095235E1
7.465885620E-1,2.717418909E0,6.737283707E0,7.716512203E0,1.059810916E1
7.485858700E-1,2.777273893E0,6.727706909E0,7.697358608E0,1.059361223E1
7.505852550E-1,2.803610086E0,6.701370716E0,7.661445618E0,1.055776245E1
7.527609470E-1,2.873042107E0,6.708553314E0,7.572859764E0,1.051699879E1
7.545779470E-1,2.904166698E0,6.730101109E0,7.532158375E0,1.051008349E1
7.565725240E-1,2.944868088E0,6.761225700E0,7.426813602E0,1.046632607E1
7.585718700E-1,2.966415882E0,6.837840080E0,7.268796444E0,1.041110378E1
7.605700620E-1,2.906560898E0,6.895300865E0,7.165845871E0,1.036062823E1
7.625695240E-1,2.796427488E0,7.000645638E0,6.945579052E0,1.025037143E1
7.645680240E-1,2.604891539E0,6.897695065E0,6.689399719E0,9.955487217E0
7.665672930E-1,2.662352324E0,6.916848660E0,6.624756336E0,9.940740002E0
7.685657160E-1,2.691082716E0,7.070077419E0,6.478709698E0,9.960000012E0
7.705652160E-1,2.449268341E0,7.244854450E0,6.260837555E0,9.883568096E0
7.726061010E-1,2.269703150E0,7.328651428E0,6.155492783E0,9.836197209E0
7.746053700E-1,1.912967205E0,7.491456985E0,5.973533154E0,9.770592082E0
7.766031780E-1,1.460463047E0,7.659051418E0,5.822698593E0,9.731281511E0
7.786024080E-1,1.283292055E0,7.745242596E0,5.791574001E0,9.755918756E0
7.806001010E-1,1.019929886E0,7.929595947E0,5.748478413E0,9.847017463E0
7.825995620E-1,7.517793179E-1,8.054094315E0,5.729324818E0,9.912556191E0
7.846062160E-1,1.987187415E-1,8.274360657E0,5.702988625E0,1.005129905E1
7.866055240E-1,-1.963245422E-1,8.427590370E0,5.805939198E0,1.023580738E1
7.886035620E-1,-3.351882398E-1,8.489839554E0,5.920860767E0,1.035597987E1
7.906025620E-1,-4.740519226E-1,8.655038834E0,6.248866558E0,1.068563314E1
7.926277540E-1,-5.267243981E-1,8.765172005E0,6.569689274E0,1.096660823E1
7.946267540E-1,-4.884171486E-1,8.822632790E0,6.715735912E0,1.109858142E1
7.966247160E-1,-4.141969085E-1,8.944737434E0,7.046135426E0,1.139420516E1
7.986242540E-1,-2.896983922E-1,9.059659004E0,7.381323814E0,1.168953753E1
8.006221770E-1,-2.226607651E-1,9.114726067E0,7.563282967E0,1.184614107E1
8.026215620E-1,-1.723825186E-1,9.198522568E0,7.857769966E0,1.209905294E1
8.046189080E-1,-1.149216816E-1,9.246406555E0,8.171410561E0,1.234022657E1
8.066186010E-1,-1.005564705E-1,9.263166428E0,8.300697327E0,1.243856664E1
8.086165240E-1,-1.101332754E-1,9.272743225E0,8.628703117E0,1.266690229E1
8.106152930E-1,-2.633621916E-2,9.299078941E0,8.980650902E0,1.292770874E1
8.127688700E-1,5.746084079E-2,9.318233490E0,9.179368973E0,1.308027492E1
8.146482930E-1,2.729389966E-1,9.330204010E0,9.497797966E0,1.331673266E1
8.166426390E-1,5.171475410E-1,9.385271072E0,9.758766174E0,1.354932736E1
8.186418310E-1,7.086837292E-1,9.406818390E0,9.840168953E0,1.363155860E1
8.206391000E-1,7.757213712E-1,9.354146004E0,9.957485199E0,1.368405286E1
8.226381000E-1,1.041477680E0,9.291896820E0,9.873687744E0,1.359829886E1
8.246356770E-1,1.029506683E0,9.358934402E0,9.763554573E0,1.356379501E1
8.266342160E-1,9.624691010E-1,9.641449928E0,9.629479408E0,1.366055552E1
8.286764470E-1,9.145850539E-1,1.003409958E1,9.591172218E0,1.391079454E1
8.306592930E-1,6.799532771E-1,1.026154804E1,9.500192642E0,1.400054874E1
8.326751000E-1,3.567360640E-1,1.065180302E1,9.253589630E0,1.411442840E1
8.346742540E-1,2.394201756E-1,1.079545593E1,9.042900085E0,1.408450328E1
8.366720620E-1,3.112462163E-1,1.101332760E1,8.944737434E0,1.419149699E1
8.386711770E-1,2.657563984E-1,1.115697956E1,8.896853447E0,1.427244971E1
8.406688700E-1,3.112462163E-1,1.117852783E1,8.913613319E0,1.430065946E1
8.426680230E-1,4.189853072E-1,1.112824917E1,8.908824921E0,1.426115843E1
8.446661000E-1,2.130839527E-1,1.098938560E1,8.968679428E0,1.418623317E1
8.466654080E-1,1.173158810E-1,1.088882923E1,9.057265282E0,1.416384197E1
8.486632540E-1,1.436520964E-1,1.068771648E1,9.251194954E0,1.413621334E1
8.506626000E-1,-1.101332754E-1,1.052730465E1,9.442731857E0,1.414218715E1
8.526834470E-1,-2.035071403E-1,1.046745014E1,9.490615845E0,1.413084275E1
8.546814850E-1,-4.716577232E-1,1.044590187E1,9.658209801E0,1.423447728E1
8.566792540E-1,-5.722141862E-1,1.034774017E1,9.928754807E0,1.435211928E1
8.586782160E-1,-6.847416759E-1,1.030943298E1,1.015859795E1,1.448966500E1
8.606760230E-1,-8.834604025E-1,1.017535686E1,1.058955383E1,1.471247906E1
8.626753700E-1,-1.031900883E0,1.008198357E1,1.115458584E1,1.507103173E1
8.646736770E-1,-1.007958889E0,9.986215591E0,1.147301483E1,1.524370533E1
8.666726390E-1,-8.451532125E-1,9.758766174E0,1.209550667E1,1.556435295E1
8.686704080E-1,-5.937620401E-1,9.574412346E0,1.259110641E1,1.582902037E1
8.706696000E-1,-3.950432837E-1,9.538499832E0,1.282573891E1,1.598870279E1
8.727007540E-1,4.548983276E-2,9.509769440E0,1.318247414E1,1.625470420E1
8.747001390E-1,4.812345505E-1,9.490615845E0,1.337879944E1,1.641023005E1
8.766979850E-1,6.943184733E-1,9.488221169E0,1.347935581E1,1.649852879E1
8.786970230E-1,1.079784989E0,9.528923035E0,1.365413189E1,1.668537166E1
8.807038310E-1,1.486799240E0,9.674968719E0,1.376187134E1,1.688800445E1
8.827033310E-1,1.702277422E0,9.763554573E0,1.376905441E1,1.696501122E1
8.847012160E-1,2.183511972E0,9.967061996E0,1.368765068E1,1.707225324E1
8.866999080E-1,2.676717520E0,1.021366405E1,1.348893261E1,1.712994609E1
8.886976000E-1,2.932897091E0,1.031900978E1,1.337879944E1,1.714864784E1
8.906967540E-1,3.450044632E0,1.053448772E1,1.319923401E1,1.723653150E1
8.927154080E-1,3.737348795E0,1.060631371E1,1.310346603E1,1.726738221E1
8.947146770E-1,3.804386616E0,1.068053341E1,1.299333286E1,1.724453103E1
8.967122930E-1,3.933673382E0,1.076433086E1,1.280419064E1,1.718405956E1
8.987118690E-1,4.000710964E0,1.083136845E1,1.261265469E1,1.709980377E1
9.007099460E-1,4.024652958E0,1.097980881E1,1.230380249E1,1.697461601E1
9.027092160E-1,4.065354347E0,1.126232433E1,1.185369301E1,1.684865257E1
9.047072920E-1,4.122815132E0,1.149216843E1,1.156159973E1,1.681481871E1
9.067065620E-1,4.072536945E0,1.181538582E1,1.124077702E1,1.680904421E1
9.087047540E-1,4.022258759E0,1.201171017E1,1.097262669E1,1.675882702E1
9.107039080E-1,4.041412354E0,1.209071827E1,1.086488724E1,1.675005244E1
9.127196000E-1,4.268861771E0,1.224394703E1,1.059673691E1,1.674599214E1
9.147187540E-1,4.692635536E0,1.250730991E1,1.011071396E1,1.675351206E1
9.167162920E-1,4.874594688E0,1.261744308E1,9.916783333E0,1.677212375E1
9.187155230E-1,5.097255230E0,1.272996998E1,9.538499832E0,1.670380572E1
9.207129460E-1,5.197812080E0,1.275391293E1,9.241618156E0,1.658574845E1
9.227117920E-1,5.204994678E0,1.274672985E1,9.107542992E0,1.650813226E1
9.247099080E-1,5.307945251E0,1.282334423E1,8.755595207E0,1.640953648E1
9.267096770E-1,5.542576790E0,1.311783123E1,8.245630264E0,1.645563952E1
9.287164080E-1,5.559336185E0,1.320641613E1,8.020575523E0,1.642087932E1
9.307162540E-1,5.516240597E0,1.326627159E1,7.615955830E0,1.626117017E1
9.327501770E-1,5.607220173E0,1.333570385E1,7.311892033E0,1.620943183E1
9.347496390E-1,5.710171223E0,1.341710663E1,7.098807812E0,1.621782593E1
9.367476390E-1,5.667075634E0,1.339316463E1,6.823474884E0,1.606400992E1
9.387474080E-1,5.693411827E0,1.332133865E1,6.643909931E0,1.593783363E1
9.407456000E-1,5.712565422E0,1.327824306E1,6.550535679E0,1.586992943E1
9.427451380E-1,5.714959621E0,1.316092682E1,6.457161903E0,1.573422061E1
9.447430620E-1,5.655104637E0,1.309628296E1,6.320692539E0,1.560269175E1
9.467425230E-1,5.576095581E0,1.289995861E1,6.251260757E0,1.538115845E1
9.487407540E-1,5.588066578E0,1.284010410E1,5.916072369E0,1.520179837E1
9.507401380E-1,5.573701382E0,1.281855583E1,5.748478413E0,1.511378592E1
9.527561000E-1,5.509057999E0,1.268448067E1,5.535394192E0,1.489585038E1
9.547554080E-1,5.363011837E0,1.242351246E1,5.444414616E0,1.458585645E1
9.567532540E-1,5.090072632E0,1.215296745E1,5.377377033E0,1.423093957E1
9.587524080E-1,4.661510944E0,1.159272480E1,5.094861031E0,1.349364893E1
9.607505230E-1,4.625597477E0,1.118331623E1,4.541800499E0,1.292635547E1
9.627499460E-1,4.678270340E0,1.102529907E1,4.297592163E0,1.272449337E1
9.647477150E-1,4.541800499E0,1.063983250E1,3.809175014E0,1.217964702E1
9.667470230E-1,4.311957359E0,1.029985619E1,3.450044632E0,1.168686535E1
9.687451000E-1,4.254496574E0,1.017296314E1,3.347094059E0,1.152358273E1
9.707446000E-1,4.211400986E0,1.000297451E1,3.337517262E0,1.135492927E1
9.727639850E-1,4.290409565E0,1.002691650E1,3.452438831E0,1.143966795E1
9.747634850E-1,4.302380562E0,1.007001209E1,3.457227230E0,1.148338113E1
9.767670230E-1,4.161122322E0,1.002452278E1,3.380612850E0,1.136813702E1
9.787668310E-1,3.790021181E0,9.945513725E0,3.134010077E0,1.109502244E1
9.807648690E-1,3.620033026E0,9.900024414E0,2.985569477E0,1.095576321E1
9.827641770E-1,3.292027235E0,9.799467087E0,2.700659513E0,1.068459453E1
9.847621000E-1,3.114856482E0,9.713275909E0,2.566584110E0,1.051843210E1
9.867614080E-1,3.021482468E0,9.682151794E0,2.511517525E0,1.044897794E1
9.887597920E-1,2.877830505E0,9.631873131E0,2.413355350E0,1.033823836E1
9.907591000E-1,2.686294317E0,9.531316757E0,2.305616140E0,1.016749930E1
9.929126000E-1,2.509123325E0,9.473855972E0,2.166752577E0,1.003715416E1
9.947917920E-1,1.975216389E0,9.296685219E0,1.702277422E0,9.655443245E0
9.967862920E-1,1.474828243E0,9.200917244E0,1.414973259E0,9.425186778E0
9.987861000E-1,1.261744261E0,8.927978516E0,1.285686255E0,9.107897019E0
1.000784061E0,7.110779285E-1,8.585607529E0,1.146822572E0,8.691000545E0
1.002783523E0,3.687070608E-1,8.415618896E0,1.012747288E0,8.484352855E0
1.004781754E0,-4.525041282E-1,8.015787125E0,6.512228847E-1,8.054917409E0
1.006781600E0,-1.455674648E0,7.601590633E0,2.322375625E-1,7.743197216E0
1.008779984E0,-1.975216389E0,7.436390400E0,3.112462163E-2,7.694306382E0
1.010779946E0,-2.832340717E0,7.216124058E0,-2.585737705E-1,7.756381937E0
1.012800715E0,-3.526659012E0,6.981492043E0,-8.116343617E-1,7.863669961E0
1.014799946E0,-3.725377798E0,6.847416878E0,-1.098938584E0,7.872307390E0
1.016798715E0,-3.940855980E0,6.540958881E0,-1.778891921E0,7.840851064E0
1.018798407E0,-4.168305397E0,6.246472359E0,-2.492363930E0,7.912336240E0
1.020796523E0,-4.352658749E0,6.210559368E0,-2.791639090E0,8.081456221E0
1.022796215E0,-4.900930882E0,6.253654957E0,-3.351882458E0,8.623365923E0
1.024802984E0,-5.240907669E0,6.392518520E0,-3.562572241E0,9.001295862E0
1.026802907E0,-5.473145008E0,6.459556103E0,-3.744531393E0,9.257575097E0
1.028801600E0,-5.829881191E0,6.607996464E0,-4.189853191E0,9.757458774E0
1.030801946E0,-5.951985359E0,6.517016888E0,-4.493916512E0,9.904187218E0
1.032818754E0,-5.983109951E0,6.385335922E0,-4.654327869E0,9.911250549E0
1.034818446E0,-6.028599739E0,6.009446144E0,-4.850652695E0,9.797259277E0
1.036816638E0,-6.177040577E0,5.616796970E0,-5.056553841E0,9.760787634E0
1.038816330E0,-6.306327343E0,5.425261021E0,-5.164293289E0,9.791483385E0
1.040814715E0,-6.703764915E0,5.147533417E0,-5.343858242E0,9.999719258E0
1.042814292E0,-7.297526836E0,4.996698856E0,-5.425261021E0,1.037566164E1
1.044812484E0,-7.697358608E0,4.967968464E0,-5.461174011E0,1.066557367E1
1.046812023E0,-8.501810074E0,4.958391666E0,-5.578489780E0,1.131308847E1
1.048810253E0,-9.272743225E0,4.958391666E0,-5.911283970E0,1.206286421E1
1.050809946E0,-9.639056206E0,4.944026470E0,-6.062118530E0,1.241386658E1
1.052963138E0,-1.021845245E1,4.833893299E0,-6.282385349E0,1.293258136E1
1.054843215E0,-1.054406452E1,4.790797710E0,-6.279991150E0,1.317449537E1
1.056838523E0,-1.077390766E1,4.707000732E0,-6.026205540E0,1.321166513E1
1.058838561E0,-1.076193619E1,4.496310711E0,-6.121973515E0,1.317249560E1
1.060837138E0,-1.088882923E1,4.398148537E0,-6.387730122E0,1.336837345E1
1.062837100E0,-1.118092155E1,4.211400986E0,-6.598419666E0,1.364873793E1
1.064835446E0,-1.142513084E1,4.129997730E0,-6.684611320E0,1.386630897E1
1.066835330E0,-1.153286934E1,4.065354347E0,-6.617573261E0,1.390418847E1
1.068833407E0,-1.180820274E1,3.816357613E0,-6.435614109E0,1.397910464E1
1.070833330E0,-1.202607536E1,3.591302633E0,-6.493074894E0,1.413095768E1
1.072848138E0,-1.219127464E1,3.390189648E0,-6.430825710E0,1.419422709E1
1.074848176E0,-1.246660805E1,3.004723072E0,-6.208165169E0,1.424731525E1
1.076846869E0,-1.272996998E1,2.662352324E0,-6.363788128E0,1.447888307E1
1.078846676E0,-1.278024864E1,2.473210335E0,-6.452373505E0,1.452875248E1
1.080845330E0,-1.259828949E1,1.996764183E0,-6.933608055E0,1.451822599E1
1.082844946E0,-1.232535076E1,1.558625340E0,-7.702147007E0,1.461734083E1
1.084843176E0,-1.219606304E1,1.364694953E0,-8.113949776E0,1.471198583E1
1.086842561E0,-1.194227791E1,1.029506683E0,-9.090784073E0,1.504394366E1
1.088840369E0,-1.172679996E1,8.044517636E-1,-1.008198357E1,1.548584427E1
1.090840599E0,-1.151132202E1,7.134721279E-1,-1.048660374E1,1.558808632E1
1.092860369E0,-1.093192482E1,5.889736414E-1,-1.120965195E1,1.566876405E1
1.094859907E0,-1.037647057E1,3.974374831E-1,-1.187763500E1,1.577679661E1
1.096858215E0,-1.007480049E1,2.920926213E-1,-1.214817905E1,1.578496682E1
1.098857907E0,-9.421183586E0,2.154781483E-2,-1.255279922E1,1.569496521E1
1.100856099E0,-8.805873871E0,-2.920926213E-1,-1.278503704E1,1.552694126E1
1.102855561E0,-8.583212852E0,-4.596867263E-1,-1.286404610E1,1.547147494E1
1.104853099E0,-8.465897560E0,-8.331822157E-1,-1.307712936E1,1.560054251E1
1.106852446E0,-8.736441612E0,-1.029506683E0,-1.323754120E1,1.589395461E1
1.108850292E0,-9.124302864E0,-1.343147159E0,-1.359667110E1,1.642943737E1
1.110850099E0,-1.026633644E1,-1.589749932E0,-1.414494324E1,1.755005379E1
1.112880099E0,-1.090319443E1,-1.697489023E0,-1.447534370E1,1.820155744E1
1.114879638E0,-1.206677628E1,-1.853112102E0,-1.515050793E1,1.945710679E1
1.116877292E0,-1.308670616E1,-1.951274395E0,-1.572511673E1,2.055112275E1
1.118876869E0,-1.352963352E1,-1.982398987E0,-1.596214294E1,2.101834666E1
1.120883061E0,-1.438915253E1,-1.991975784E0,-1.635479164E1,2.187452600E1
1.122883022E0,-1.518881512E1,-1.891419291E0,-1.663970184E1,2.260878699E1
1.124881330E0,-1.556231117E1,-1.802833915E0,-1.672828674E1,2.291879832E1
1.126880676E0,-1.629254341E1,-1.659181833E0,-1.682166100E1,2.347697029E1
1.128878561E0,-1.693897629E1,-1.570596337E0,-1.677377701E1,2.389048525E1
1.130877676E0,-1.723825264E1,-1.527500629E0,-1.672110558E1,2.406420545E1
1.132896292E0,-1.787032127E1,-1.489193439E0,-1.655111694E1,2.440298243E1
1.134895369E0,-1.853590965E1,-1.470039845E0,-1.629014778E1,2.472063669E1
1.136893215E0,-1.890461731E1,-1.482010841E0,-1.614649582E1,2.490562665E1
1.138892792E0,-1.968273163E1,-1.501164436E0,-1.583285618E1,2.530499464E1
1.140890715E0,-2.054224968E1,-1.604115129E0,-1.552400398E1,2.579829271E1
1.142889984E0,-2.097560120E1,-1.663970232E0,-1.538035202E1,2.606338180E1
1.144887945E0,-2.189736938E1,-1.802833915E0,-1.513853741E1,2.668183485E1
1.146887215E0,-2.289096260E1,-1.920149803E0,-1.496854877E1,2.741788826E1
1.148885407E0,-2.342008018E1,-1.963245392E0,-1.488475227E1,2.781924403E1
1.150884907E0,-2.453817368E1,-2.049436569E0,-1.468124485E1,2.866812006E1
1.152923253E0,-2.573048592E1,-2.169146776E0,-1.444182491E1,2.958596644E1
1.154922484E0,-2.631227684E1,-2.243366957E0,-1.429817295E1,3.003009087E1
1.156920330E0,-2.737530136E1,-2.430114746E0,-1.403241634E1,3.085808307E1
1.158919407E0,-2.841199112E1,-2.686294317E0,-1.380975533E1,3.170436498E1
1.160916984E0,-2.891238022E1,-2.858676910E0,-1.372835255E1,3.213355609E1
1.162916176E0,-2.981259918E1,-3.296815634E0,-1.360385418E1,3.293516224E1
1.164913830E0,-3.062423325E1,-3.574543238E0,-1.354160500E1,3.367485838E1
1.166913061E0,-3.095463371E1,-4.182670593E0,-1.342668343E1,3.399941043E1
1.168919715E0,-3.144783974E1,-4.869806290E0,-1.336203957E1,3.451413824E1
1.170919445E0,-3.163219261E1,-5.233725071E0,-1.336203957E1,3.473516358E1
1.172953253E0,-3.184527588E1,-6.050147533E0,-1.331176186E1,3.504181623E1
1.174952830E0,-3.179021072E1,-6.974309444E0,-1.322796440E1,3.513171690E1
1.176950676E0,-3.163698196E1,-7.467514992E0,-1.315853214E1,3.506863807E1
1.178950368E0,-3.108870888E1,-8.540117264E0,-1.303403378E1,3.477538582E1
1.180948599E0,-3.014778709E1,-9.734824181E0,-1.283531570E1,3.418188406E1
1.182948176E0,-2.953487206E1,-1.037407589E1,-1.269166279E1,3.377881618E1
1.184946176E0,-2.800497818E1,-1.169328117E1,-1.230380249E1,3.274744545E1
1.186946061E0,-2.618298912E1,-1.315135002E1,-1.168849277E1,3.154564613E1
1.188944407E0,-2.515587807E1,-1.394143677E1,-1.131739140E1,3.090736496E1
1.190943830E0,-2.325488091E1,-1.577539539E1,-1.050575733E1,3.000039204E1
1.192960176E0,-2.110249329E1,-1.790623474E1,-9.765948296E0,2.934829146E1
1.194959522E0,-1.944810104E1,-1.900996208E1,-9.428366661E0,2.878370008E1
1.196957791E0,-1.556949329E1,-2.137064362E1,-8.530540466E0,2.778279415E1
1.198957484E0,-1.176031876E1,-2.389652634E1,-7.070077419E0,2.755603496E1
1.200955945E0,-9.866505623E0,-2.514869499E1,-6.189011574E0,2.771477327E1
1.202955753E0,-5.497087002E0,-2.758120346E1,-4.058171749E0,2.841495219E1
1.204954137E0,-1.077390760E-1,-2.974316788E1,-1.771709204E0,2.979608358E1
1.206953791E0,2.825158119E0,-3.074873161E1,-5.482721925E-1,3.088311216E1
1.208960099E0,9.114726067E0,-3.270718765E1,1.958456993E0,3.400990899E1
1.210959561E0,1.592622948E1,-3.444777298E1,4.520252705E0,3.821945229E1
1.213098868E0,1.957499313E1,-3.513969803E1,5.789179802E0,4.063856957E1
1.214978214E0,2.732262993E1,-3.615005112E1,8.178592682E0,4.604608214E1
1.216981753E0,3.553713608E1,-3.676057434E1,1.066616821E1,5.223021167E1
1.218981214E0,3.985388184E1,-3.689943695E1,1.183214474E1,5.558686890E1
1.220987945E0,4.860947800E1,-3.677014923E1,1.395101357E1,6.252644245E1
1.222987176E0,5.722860336E1,-3.651875687E1,1.488475227E1,6.950027695E1
1.224985714E0,6.132029343E1,-3.577655411E1,1.656308746E1,7.290045320E1
1.226984984E0,6.883090210E1,-3.472550201E1,1.788229179E1,7.914120250E1
1.228983060E0,7.218518066E1,-3.413652802E1,1.840422821E1,8.194338575E1
1.230982522E0,7.668627930E1,-3.273831558E1,1.950077248E1,8.563213688E1
1.233133445E0,7.800548553E1,-3.100970078E1,1.995806503E1,8.628314827E1
1.235013330E0,7.822575378E1,-3.007596207E1,1.994609451E1,8.614916561E1
1.237008330E0,7.838855743E1,-2.806004333E1,1.990060425E1,8.560470792E1
1.239008176E0,7.843165588E1,-2.621650887E1,1.957259941E1,8.498186059E1
1.241005791E0,7.843643951E1,-2.542163277E1,1.932360268E1,8.468728403E1
1.243005407E0,7.837898254E1,-2.414312935E1,1.871308136E1,8.412095466E1
1.245002983E0,7.637024689E1,-2.321178627E1,1.798763657E1,8.182149290E1
1.247002214E0,7.437108612E1,-2.280477142E1,1.760695839E1,7.975663630E1
1.249000060E0,6.944381714E1,-2.204580879E1,1.687672806E1,7.478827030E1
1.250998830E0,6.390124512E1,-2.127248192E1,1.621113968E1,6.927256791E1
1.253018291E0,6.104256821E1,-2.086307335E1,1.589031696E1,6.643767859E1
1.255017445E0,5.529648209E1,-1.997003555E1,1.524867058E1,6.073734605E1
1.257015330E0,4.968926239E1,-1.891658783E1,1.472194672E1,5.516879378E1
1.259014907E0,4.697902679E1,-1.832522011E1,1.449449730E1,5.246840099E1
1.261012714E0,4.178600311E1,-1.697249603E1,1.419282722E1,4.728183607E1
1.263012291E0,3.698323441E1,-1.542105293E1,1.422634697E1,4.252008289E1
1.265017406E0,3.473268509E1,-1.459984207E1,1.437478733E1,4.032554169E1
1.267016637E0,3.051170731E1,-1.293587208E1,1.493742466E1,3.635144735E1
1.269014522E0,2.700420189E1,-1.135091019E1,1.580173111E1,3.328310063E1
1.271013868E0,2.536896133E1,-1.058237171E1,1.633085060E1,3.197291778E1
1.273030906E0,2.257492828E1,-9.131484985E0,1.754231644E1,3.001240195E1
1.275029906E0,2.037226295E1,-8.427590370E0,1.889025116E1,2.903265345E1
1.277028022E0,1.947443581E1,-7.067683220E0,1.966118431E1,2.856165199E1
1.279027291E0,1.806185722E1,-5.770026207E0,2.124854088E1,2.847848975E1
1.281025253E0,1.754710388E1,-5.125985622E0,2.204580879E1,2.863903400E1
1.283025099E0,1.687912178E1,-3.813963413E0,2.368823242E1,2.933570221E1
1.285023483E0,1.657984734E1,-2.545036316E0,2.540726852E1,3.044499698E1
1.287023176E0,1.651999092E1,-1.900996208E0,2.626918030E1,3.109009038E1
1.289021368E0,1.657027054E1,-6.560112834E-1,2.793554497E1,3.248690335E1
1.291020829E0,1.675941277E1,4.668693244E-1,2.950853539E1,3.393890900E1
1.293174483E0,1.702516747E1,9.552865028E-1,3.091872025E1,3.530915124E1
1.295053868E0,1.717600250E1,1.814804912E0,3.151487732E1,3.593739099E1
1.297048483E0,1.743697166E1,2.573766708E0,3.248452759E1,3.695831149E1
1.299048137E0,1.753752708E1,2.913743496E0,3.285802460E1,3.735912924E1
1.301046329E0,1.761893082E1,3.512293816E0,3.339432526E1,3.792023062E1
1.303045752E0,1.748246002E1,4.005499363E0,3.360501480E1,3.809169796E1
1.305043445E0,1.726458931E1,4.173093796E0,3.371275330E1,3.810551785E1
1.307042868E0,1.660378838E1,4.493916512E0,3.388992691E1,3.800537094E1
1.309040637E0,1.571793461E1,4.975151062E0,3.390428925E1,3.770021785E1
1.311039983E0,1.523909378E1,5.324704647E0,3.378458023E1,3.744302766E1
1.313056483E0,1.414254951E1,6.186617374E0,3.339432526E1,3.678949443E1
1.315056099E0,1.281855583E1,7.144298077E0,3.291308975E1,3.603647937E1
1.317054483E0,1.216972733E1,7.742848396E0,3.272394943E1,3.576186280E1
1.319054022E0,1.074996567E1,9.011775017E0,3.254438400E1,3.543883154E1
1.321052060E0,9.145850182E0,1.019211674E1,3.240073013E1,3.517574636E1
1.323052137E0,8.307879448E0,1.075235939E1,3.224989700E1,3.499557044E1
1.325050752E0,6.445190907E0,1.142513084E1,3.218046570E1,3.475135211E1
1.327050560E0,4.599261284E0,1.166694450E1,3.222116470E1,3.457563092E1
1.329048522E0,3.763684988E0,1.238281155E1,3.233369446E1,3.482767784E1
1.331048868E0,1.987187386E0,1.297417927E1,3.271437073E1,3.524923110E1
1.333070829E0,1.094150186E0,1.316092682E1,3.291308975E1,3.546376512E1
1.335069329E0,-5.530605912E-1,1.336682796E1,3.345896912E1,3.603443603E1
1.337067483E0,-2.140416384E0,1.340992355E1,3.413413239E1,3.673617326E1
1.339067175E0,-2.925714493E0,1.343626022E1,3.448847580E1,3.712880091E1
1.341065445E0,-4.453215122E0,1.369004536E1,3.529053116E1,3.811390896E1
1.343065214E0,-6.198588371E0,1.382172680E1,3.607822418E1,3.912928430E1
1.345063406E0,-7.050923824E0,1.390552330E1,3.642778015E1,3.962401130E1
1.347063252E0,-8.743624687E0,1.405875206E1,3.704548264E1,4.057668377E1
1.349061252E0,-1.039083576E1,1.427183628E1,3.737588120E1,4.133535138E1
1.351061060E0,-1.118570995E1,1.438675785E1,3.740461349E1,4.160773990E1
1.353091791E0,-1.263899040E1,1.463336086E1,3.720589447E1,4.193039365E1
1.355091675E0,-1.389594650E1,1.492784786E1,3.671508408E1,4.199923058E1
1.357089714E0,-1.447534370E1,1.506910515E1,3.636074066E1,4.193705959E1
1.359089137E0,-1.555273438E1,1.536598682E1,3.548446274E1,4.167910980E1
1.361095637E0,-1.653435707E1,1.562456036E1,3.448129272E1,4.130945894E1
1.363095175E0,-1.700601387E1,1.572272301E1,3.393541336E1,4.108553038E1
1.365093098E0,-1.793257141E1,1.589271069E1,3.282450485E1,4.063992482E1
1.367091945E0,-1.884236717E1,1.596453667E1,3.172077751E1,4.020085767E1
1.369089752E0,-1.932360268E1,1.595974827E1,3.116532326E1,3.999240627E1
1.371088714E0,-2.033634949E1,1.588074017E1,3.003047180E1,3.959285611E1
1.373106752E0,-2.140176964E1,1.570596313E1,2.882139969E1,3.918400313E1
1.375105714E0,-2.192849350E1,1.558864689E1,2.821327209E1,3.898529801E1
1.377103021E0,-2.295800018E1,1.533007336E1,2.701377869E1,3.862415255E1
1.379101868E0,-2.385343170E1,1.510980701E1,2.578555298E1,3.823855665E1
1.381098868E0,-2.422932053E1,1.501164436E1,2.519657898E1,3.804309441E1
1.383097560E0,-2.482787132E1,1.485362720E1,2.410242844E1,3.765608174E1
1.385094829E0,-2.504095650E1,1.476983070E1,2.359006882E1,3.743913391E1
1.387094021E0,-2.533304787E1,1.461420727E1,2.262041855E1,3.697325660E1
1.389091521E0,-2.543839264E1,1.441309452E1,2.172019768E1,3.642274153E1
1.391090406E0,-2.544557571E1,1.428859615E1,2.129642487E1,3.612726139E1
1.393106406E0,-2.540487480E1,1.397974396E1,2.049676132E1,3.550997225E1
1.395105714E0,-2.531150055E1,1.359427738E1,1.977131844E1,3.487666082E1
1.397103829E0,-2.524446297E1,1.338119316E1,1.943373489E1,3.455443955E1
1.399103214E0,-2.506489754E1,1.290235329E1,1.879208946E1,3.388011858E1
1.401100944E0,-2.491406250E1,1.233492756E1,1.820072174E1,3.322840983E1
1.403100060E0,-2.483984184E1,1.204283428E1,1.790862846E1,3.290541861E1
1.405097444E0,-2.476322746E1,1.145146656E1,1.728853035E1,3.229933130E1
1.407096791E0,-2.469618988E1,1.088164711E1,1.663970184E1,3.170475857E1
1.409103021E0,-2.466985512E1,1.062307262E1,1.628775406E1,3.141245542E1
1.411101983E0,-2.464351845E1,1.018014526E1,1.550724411E1,3.084498304E1
1.413135791E0,-2.460999870E1,9.885659218E0,1.468603325E1,3.031596719E1
1.415134560E0,-2.457408714E1,9.773131371E0,1.424789429E1,3.004001244E1
1.417131791E0,-2.442803955E1,9.586383820E0,1.338119316E1,2.945647979E1
1.419131021E0,-2.417664909E1,9.414001465E0,1.256955910E1,2.882928374E1
1.421128291E0,-2.400187111E1,9.291896820E0,1.220563984E1,2.848520330E1
1.423127637E0,-2.351584816E1,8.932766914E0,1.156399441E1,2.768601463E1
1.425125521E0,-2.291490364E1,8.480262756E0,1.102290440E1,2.680507576E1
1.427124637E0,-2.260605240E1,8.245630264E0,1.079545593E1,2.637358323E1
1.429122329E0,-2.194285774E1,7.740454197E0,1.036689377E1,2.547304700E1
1.431121290E0,-2.119586754E1,7.146692276E0,9.962273598E0,2.448646374E1
1.433136483E0,-2.077688217E1,6.806715488E0,9.758766174E0,2.394250876E1
1.435135483E0,-1.989102745E1,6.117185116E0,9.339780807E0,2.281018265E1
1.437132790E0,-1.897883606E1,5.796362400E0,9.136273384E0,2.184640764E1
1.439131675E0,-1.850238991E1,5.104437828E0,8.681375504E0,2.106561175E1
1.441128829E0,-1.751358604E1,4.331110954E0,8.228871346E0,1.982923453E1
1.443127829E0,-1.697728348E1,3.967192173E0,7.876923561E0,1.913145820E1
1.445125560E0,-1.586637497E1,3.265691042E0,7.103596210E0,1.768806580E1
1.447124867E0,-1.479137802E1,2.645592928E0,6.244078159E0,1.627183265E1
1.449122829E0,-1.428620148E1,2.372653961E0,5.767632008E0,1.558815635E1
1.451121752E0,-1.337161636E1,1.824381709E0,4.774038315E0,1.431502479E1
1.453140021E0,-1.267250919E1,1.237802267E0,3.665522814E0,1.324993212E1
1.455139213E0,-1.241872406E1,9.385270476E-1,3.055001259E0,1.282336044E1
1.457142021E0,-1.205241108E1,3.351882398E-1,1.709460020E0,1.217765238E1
1.459141329E0,-1.197100830E1,-2.466027737E-1,2.466027737E-1,1.197608724E1
1.461139137E0,-1.204522896E1,-5.410895944E-1,-5.051765442E-1,1.206795434E1
1.463138367E0,-1.240435886E1,-1.094150186E0,-1.996764183E0,1.261159588E1
1.465135752E0,-1.290474701E1,-1.508347034E0,-3.445256233E0,1.344162924E1
1.467134367E0,-1.318247414E1,-1.628057122E0,-4.177882195E0,1.392418378E1
1.469132060E0,-1.385045719E1,-1.762132406E0,-5.568912983E0,1.503173532E1
1.471131252E0,-1.463814926E1,-1.829170108E0,-6.926425457E0,1.629713615E1
1.473281675E0,-1.508586502E1,-1.838746905E0,-7.613561630E0,1.699795971E1
1.475160944E0,-1.615128517E1,-1.915361404E0,-8.935160637E0,1.855720123E1
1.477155175E0,-1.758541107E1,-2.049436569E0,-1.018253994E1,2.042378497E1
1.479153983E0,-1.825818253E1,-2.181117773E0,-1.084094524E1,2.134583326E1
1.481151444E0,-1.965160751E1,-2.626439333E0,-1.185369301E1,2.309965150E1
1.483150752E0,-2.126051140E1,-3.174711466E0,-1.300530338E1,2.512421250E1
1.485148598E0,-2.204341507E1,-3.509899616E0,-1.356075859E1,2.611753658E1
1.487147790E0,-2.353500175E1,-4.230554581E0,-1.470039845E1,2.806947834E1
1.489145098E0,-2.498110008E1,-4.630385876E0,-1.528458405E1,2.964986246E1
1.491144290E0,-2.561317062E1,-5.535394192E0,-1.651041412E1,3.097206601E1
1.493164252E0,-2.673365593E1,-6.538564682E0,-1.772906303E1,3.273775899E1
1.495162444E0,-2.728671646E1,-6.931213856E0,-1.834676743E1,3.360372741E1
1.497160213E0,-2.824200249E1,-7.505822182E0,-1.971625137E1,3.525164733E1
1.499159406E0,-2.904166603E1,-7.824251175E0,-2.100911903E1,3.668815006E1
1.501156944E0,-2.944868088E1,-7.953537941E0,-2.171780396E1,3.744524776E1
1.503155829E0,-3.018609428E1,-8.207323074E0,-2.315911293E1,3.892177992E1
1.505161482E0,-3.075591469E1,-8.458714485E0,-2.470097923E1,4.034370476E1
1.507160444E0,-3.093787384E1,-8.573636055E0,-2.546233559E1,4.097547811E1
1.509157713E0,-3.116053581E1,-8.714894295E0,-2.696828842E1,4.212145481E1
1.511156867E0,-3.141671562E1,-9.035717010E0,-2.827312851E1,4.322064319E1
1.513171867E0,-3.142629242E1,-9.210494041E0,-2.901533127E1,4.375310851E1
1.515170829E0,-3.128024483E1,-9.495404243E0,-3.043030357E1,4.466116651E1
1.517168329E0,-3.106237221E1,-9.797073364E0,-3.138558960E1,4.523172391E1
1.519167482E0,-3.088998985E1,-1.000297451E1,-3.173274994E1,4.540064307E1
1.521165367E0,-3.031298828E1,-1.052012253E1,-3.215412903E1,4.542508393E1
1.523164021E0,-2.946065140E1,-1.111149025E1,-3.228580856E1,4.509732399E1
1.525161752E0,-2.898899460E1,-1.147062016E1,-3.218285751E1,4.480706699E1
1.527160752E0,-2.791399765E1,-1.235168648E1,-3.150769424E1,4.386901207E1
1.529158175E0,-2.669295502E1,-1.331655025E1,-3.027468109E1,4.250177259E1
1.531156944E0,-2.606088638E1,-1.380017853E1,-2.946783447E1,4.168894332E1
1.533310290E0,-2.475365067E1,-1.472194672E1,-2.749501228E1,3.981776785E1
1.535189252E0,-2.341529274E1,-1.562695408E1,-2.520136642E1,3.778341564E1
1.537183367E0,-2.274731064E1,-1.607227516E1,-2.400426674E1,3.676904937E1
1.539182521E0,-2.135627937E1,-1.692939949E1,-2.158372879E1,3.476424290E1
1.541180021E0,-1.967555046E1,-1.733641434E1,-1.922065163E1,3.251325879E1
1.543179021E0,-1.867956161E1,-1.802115631E1,-1.816002083E1,3.167766490E1
1.545176867E0,-1.653196335E1,-1.867956161E1,-1.617522621E1,2.972994748E1
1.547176252E0,-1.544499493E1,-1.904108620E1,-1.522233486E1,2.885879953E1
1.549173905E0,-1.315853214E1,-1.985032654E1,-1.333570385E1,2.729511731E1
1.551173328E0,-1.068053341E1,-2.076251793E1,-1.153765774E1,2.604368428E1
1.553188982E0,-9.392453194E0,-2.124854088E1,-1.065180302E1,2.555737807E1
1.555188252E0,-6.734889507E0,-2.219664383E1,-8.846575737E0,2.482562459E1
1.557185944E0,-3.890577793E0,-2.313038254E1,-7.000645638E0,2.447774972E1
1.559184982E0,-2.415749550E0,-2.359006882E1,-6.083666325E0,2.448138453E1
1.561182982E0,6.895300746E-1,-2.449507713E1,-4.273650169E0,2.487465259E1
1.563182367E0,4.043806553E0,-2.537135506E1,-2.580949545E0,2.582090876E1
1.565180482E0,5.777208805E0,-2.579273415E1,-1.817199111E0,2.649421614E1
1.567179828E0,9.294290543E0,-2.662831116E1,-4.596867263E-1,2.820748311E1
1.569177867E0,1.291193008E1,-2.743036842E1,6.296750307E-1,3.032391038E1
1.571177059E0,1.477461910E1,-2.780625916E1,1.060631394E0,3.150559247E1
1.573196905E0,1.859337044E1,-2.844311714E1,1.654393315E0,3.402148372E1
1.575195905E0,2.250070763E1,-2.881421661E1,1.929726601E0,3.660962671E1
1.577193790E0,2.448789406E1,-2.884773636E1,1.970427990E0,3.789104690E1
1.579193482E0,2.845269394E1,-2.856521988E1,1.982398987E0,4.036653917E1
1.581191328E0,3.245819092E1,-2.787090111E1,2.157175779E0,4.283660460E1
1.583190713E0,3.441664886E1,-2.732981300E1,2.377442360E0,4.401223273E1
1.585188751E0,3.813963318E1,-2.595075226E1,3.033453465E0,4.623067166E1
1.587188328E0,4.146517944E1,-2.435621452E1,4.194641590E0,4.827195159E1
1.589185982E0,4.293521881E1,-2.348951340E1,4.979939461E0,4.919339438E1
1.591185828E0,4.556884003E1,-2.142810440E1,6.320692539E0,5.075070437E1
1.593183905E0,4.659116364E1,-2.060449982E1,7.201758862E0,5.145043510E1
1.595183405E0,4.793191910E1,-1.935233307E1,9.677363396E0,5.258928623E1
1.597181328E0,4.858553696E1,-1.854309273E1,1.269405746E1,5.353073682E1
1.599181136E0,4.868848419E1,-1.823663521E1,1.442745972E1,5.395641714E1
1.601187674E0,4.860947800E1,-1.767160225E1,1.817199135E1,5.482142051E1
1.603187328E0,4.839160538E1,-1.705629349E1,2.214397240E1,5.588398815E1
1.605185597E0,4.818570328E1,-1.676420021E1,2.432748413E1,5.652191516E1
1.607184982E0,4.767095184E1,-1.631648445E1,2.872323799E1,5.799803199E1
1.609182367E0,4.704845810E1,-1.591665268E1,3.300407028E1,5.963359705E1
1.611181982E0,4.669411469E1,-1.567244434E1,3.502956390E1,6.044035246E1
1.613200136E0,4.588248062E1,-1.502840424E1,3.880282593E1,6.194121618E1
1.615199674E0,4.498226166E1,-1.411621284E1,4.194162369E1,6.310127674E1
1.617197213E0,4.451539230E1,-1.355836391E1,4.322252274E1,6.351091131E1
1.619196597E0,4.361277771E1,-1.218169785E1,4.529111481E1,6.404493128E1
1.621194405E0,4.290409470E1,-1.020169353E1,4.601895142E1,6.373836978E1
1.623193828E0,4.259524155E1,-8.983044624E0,4.583938599E1,6.321628746E1
1.625191674E0,4.203021240E1,-6.287173748E0,4.458242798E1,6.159269594E1
1.627191174E0,4.145799637E1,-3.514688015E0,4.256411743E1,5.952161446E1
1.629189213E0,4.112280655E1,-2.202665567E0,4.140053558E1,5.839470268E1
1.631188636E0,4.046440125E1,1.292868853E-1,3.889620209E1,5.612752462E1
1.633204597E0,3.971022797E1,2.092532396E0,3.635834885E1,5.388144790E1
1.635204136E0,3.935588837E1,2.916137695E0,3.514927673E1,5.284753034E1
1.637202174E0,3.868551254E1,4.240131378E0,3.291308975E1,5.096880489E1
1.639201597E0,3.801752853E1,4.742913723E0,3.100012398E1,4.928321614E1
1.641199867E0,3.766318512E1,5.458779812E0,3.019327736E1,4.857929382E1
1.643198944E0,3.691380310E1,5.930437565E0,2.884055328E1,4.721839115E1
1.645196636E0,3.647805786E1,6.110002518E0,2.828988647E1,4.656499235E1
1.647196367E0,3.546770477E1,6.481103897E0,2.738487816E1,4.527575887E1
1.649201751E0,3.421074677E1,6.904877663E0,2.664746475E1,4.391058992E1
1.651201636E0,3.348291016E1,7.173028469E0,2.632664108E1,4.319316660E1
1.653236559E0,3.188118935E1,7.776367188E0,2.573048592E1,4.170059983E1
1.655236405E0,3.018609428E1,8.477868080E0,2.516784859E1,4.020566052E1
1.657234905E0,2.933854675E1,8.858546257E0,2.491166878E1,3.949449846E1
1.659234828E0,2.769612503E1,9.694122314E0,2.452859688E1,3.824530578E1
1.661233136E0,2.610398102E1,1.054645824E1,2.435142517E1,3.722415230E1
1.663233443E0,2.532107735E1,1.097023201E1,2.435142517E1,3.680346256E1
1.665231597E0,2.374329758E1,1.181299114E1,2.453817368E1,3.613049829E1
1.667231943E0,2.210326958E1,1.256237602E1,2.493560982E1,3.561112824E1
1.669230366E0,2.124854088E1,1.289038181E1,2.522052002E1,3.540814967E1
1.671230174E0,1.945049477E1,1.345541382E1,2.591723251E1,3.508664773E1
1.673246982E0,1.761653519E1,1.388636971E1,2.673126221E1,3.489604497E1
1.675246866E0,1.668279839E1,1.408269405E1,2.717658424E1,3.485978722E1
1.677245559E0,1.475785923E1,1.443943024E1,2.813426399E1,3.489739768E1
1.679245174E0,1.280897903E1,1.476025391E1,2.911349297E1,3.506466187E1
1.681242982E0,1.182975101E1,1.491827106E1,2.961388016E1,3.520624545E1
1.683242520E0,9.876082420E0,1.525585365E1,3.053086090E1,3.553043121E1
1.685240328E0,7.888894558E0,1.553597450E1,3.133531189E1,3.585391098E1
1.687239674E0,6.897695065E0,1.567244434E1,3.169444275E1,3.602417813E1
1.689237674E0,4.977545261E0,1.589271069E1,3.231214523E1,3.635146406E1
1.691236789E0,3.033453465E0,1.604354477E1,3.279098511E1,3.663121446E1
1.693405251E0,2.059013367E0,1.611537170E1,3.300407028E1,3.678604894E1
1.695274982E0,1.388636976E-1,1.616564941E1,3.333446884E1,3.704773026E1
1.697277905E0,-1.757344007E0,1.622550583E1,3.347093964E1,3.723787182E1
1.699277559E0,-2.691082716E0,1.620635223E1,3.348530579E1,3.729816996E1
1.701284366E0,-4.601655483E0,1.611537170E1,3.332489395E1,3.730186316E1
1.703283905E0,-6.679822922E0,1.601721001E1,3.314293289E1,3.741156307E1
1.705281943E0,-7.673416615E0,1.572990513E1,3.276464844E1,3.714610915E1
1.707281559E0,-9.409213066E0,1.560061836E1,3.225708008E1,3.704634663E1
1.709279366E0,-1.019690514E1,1.559104156E1,3.196977615E1,3.700167616E1
1.711278751E0,-1.169328117E1,1.541626453E1,3.126588058E1,3.676886353E1
1.713429366E0,-1.304121685E1,1.516487312E1,3.018130684E1,3.620715394E1
1.715308482E0,-1.360624790E1,1.516966152E1,2.958754539E1,3.592591620E1
1.717302982E0,-1.468363857E1,1.522712326E1,2.848860550E1,3.548344921E1
1.719301636E0,-1.592144108E1,1.485123348E1,2.729629326E1,3.491617172E1
1.721299251E0,-1.647210693E1,1.465490818E1,2.672647285E1,3.464680349E1
1.723298289E0,-1.748006630E1,1.420001030E1,2.580710030E1,3.425199901E1
1.725295828E0,-1.855027390E1,1.361821938E1,2.481350708E1,3.384196646E1
1.727295135E0,-1.902193260E1,1.328542519E1,2.435860825E1,3.364042565E1
1.729292943E0,-2.016396713E1,1.267011547E1,2.328840065E1,3.330866256E1
1.731291866E0,-2.155260277E1,1.205719948E1,2.201229095E1,3.308219609E1
1.733310943E0,-2.217988396E1,1.173637676E1,2.149035454E1,3.303823739E1
1.735309982E0,-2.332910156E1,1.116176796E1,2.052549171E1,3.301708427E1
1.737307482E0,-2.484941864E1,1.083376312E1,1.915361404E1,3.319224248E1
1.739306520E0,-2.558922768E1,1.071884060E1,1.853112030E1,3.336322131E1
1.741303712E0,-2.666422462E1,1.048660374E1,1.775779343E1,3.370888548E1
1.743302405E0,-2.760275078E1,1.040998936E1,1.689109230E1,3.399395134E1
1.745308520E0,-2.810553360E1,1.041477776E1,1.632366753E1,3.412990970E1
1.747307328E0,-2.902011871E1,1.041477776E1,1.532767963E1,3.443214557E1
1.749304866E0,-2.975992775E1,1.033098030E1,1.452322769E1,3.468870992E1
1.751303789E0,-3.011426926E1,1.026154804E1,1.411381912E1,3.480471910E1
1.753319982E0,-3.074633789E1,1.005564690E1,1.334288597E1,3.499265543E1
1.755319212E0,-3.121081352E1,9.911994934E0,1.264617348E1,3.510396314E1
1.757316982E0,-3.139995575E1,9.586383820E0,1.233013916E1,3.506976344E1
1.759316520E0,-3.163937569E1,9.193734169E0,1.176989555E1,3.498721600E1
1.761314058E0,-3.169204712E1,8.995016098E0,1.152329254E1,3.490103775E1
1.763312635E0,-3.167049980E1,8.592789650E0,1.104924107E1,3.462574649E1
1.765310405E0,-3.144783974E1,8.173804283E0,1.067574501E1,3.420159692E1
1.767309674E0,-3.127785110E1,7.939172745E0,1.050815105E1,3.393752602E1
1.769307481E0,-3.084210587E1,7.441178799E0,1.019451046E1,3.332468574E1
1.771306905E0,-3.027707481E1,6.931213856E0,9.880870819E0,3.259408831E1
1.773458828E0,-2.962345695E1,6.687005520E0,9.718064308E0,3.188582787E1
1.775338366E0,-2.926672173E1,6.189011574E0,9.354146004E0,3.134238205E1
1.777332674E0,-2.853888512E1,5.698200226E0,8.920795441E0,3.043875886E1
1.779331520E0,-2.817017746E1,5.449203014E0,8.686163902E0,2.997836145E1
1.781329135E0,-2.738966751E1,4.994304657E0,8.166622162E0,2.901431858E1
1.783328251E0,-2.657324409E1,4.546588898E0,7.630321026E0,2.801839701E1
1.785325481E0,-2.613750076E1,4.309563160E0,7.343016624E0,2.748929199E1
1.787324751E0,-2.527079964E1,3.837905407E0,6.689399719E0,2.642140989E1
1.789322635E0,-2.432748413E1,3.347094059E0,6.026205540E0,2.528526599E1
1.791321712E0,-2.382470131E1,3.110068083E0,5.652710438E0,2.468282908E1
1.793337212E0,-2.276407051E1,2.626439333E0,4.893748283E0,2.343181303E1
1.795336404E0,-2.164118958E1,2.121262789E0,4.098873138E0,2.212784678E1
1.797334635E0,-2.101390839E1,1.843535304E0,3.746925592E0,2.142480851E1
1.799333789E0,-1.972343445E1,1.340752959E0,3.059789658E0,2.000434447E1
1.801331597E0,-1.857900429E1,7.829039693E-1,2.212242365E0,1.872662156E1
1.803330674E0,-1.806185722E1,4.812345505E-1,1.807622313E0,1.815846281E1
1.805328443E0,-1.720712852E1,-1.484405100E-1,8.044517636E-1,1.722656232E1
1.807327520E0,-1.640746498E1,-4.955997467E-1,3.399766386E-1,1.641846857E1
1.809324866E0,-1.599326706E1,-1.213860273E0,-4.692635238E-1,1.604612901E1
1.811324366E0,-1.519120979E1,-1.920149803E0,-1.273715258E0,1.536496602E1
1.813344443E0,-1.482968521E1,-2.205059767E0,-1.695094824E0,1.508824703E1
1.815342827E0,-1.422395229E1,-2.659958124E0,-2.521094322E0,1.468850274E1
1.817341481E0,-1.381454372E1,-3.033453465E0,-3.303998232E0,1.452445739E1
1.819340712E0,-1.368286228E1,-3.155557871E0,-3.663128614E0,1.451195290E1
1.821338558E0,-1.356075859E1,-3.399766445E0,-4.343081951E0,1.463949952E1
1.823337981E0,-1.340513515E1,-3.775655985E0,-4.716577530E0,1.470371824E1
1.825335558E0,-1.338358784E1,-3.967192173E0,-4.982333660E0,1.482169646E1
1.827334404E0,-1.348414421E1,-4.436455727E0,-5.590460777E0,1.525639329E1
1.829331635E0,-1.363737297E1,-5.013458252E0,-6.042964935E0,1.573626799E1
1.831330943E0,-1.368525696E1,-5.319916248E0,-6.224924564E0,1.594796077E1
1.833360366E0,-1.379299641E1,-5.925649166E0,-6.603208065E0,1.640007392E1
1.835360020E0,-1.391510010E1,-6.416460514E0,-6.959944248E0,1.682978907E1
1.837357212E0,-1.398453236E1,-6.624756336E0,-7.163451672E0,1.705196709E1
1.839356558E0,-1.418325043E1,-6.952761650E0,-7.625532627E0,1.754007512E1
1.841362289E0,-1.448731422E1,-7.201758862E0,-8.200140953E0,1.813807916E1
1.843362174E0,-1.466927338E1,-7.304709435E0,-8.518569946E0,1.846922833E1
1.845360212E0,-1.510501862E1,-7.477091789E0,-9.203310966E0,1.920337006E1
1.847359366E0,-1.555991650E1,-7.654263020E0,-1.001494598E1,2.002493163E1
1.849357481E0,-1.575145340E1,-7.742848396E0,-1.046266174E1,2.043348419E1
1.851357366E0,-1.602678680E1,-7.948749542E0,-1.142513084E1,2.122673148E1
1.853377635E0,-1.611776543E1,-8.252813339E0,-1.253604031E1,2.202370534E1
1.855377904E0,-1.608424759E1,-8.418013573E0,-1.308670616E1,2.237918343E1
1.857376020E0,-1.591665268E1,-8.734047890E0,-1.421916389E1,2.306096370E1
1.859376250E0,-1.563413715E1,-8.906430244E0,-1.552639771E1,2.376593718E1
1.861374673E0,-1.546175480E1,-9.294290543E0,-1.618240929E1,2.423468730E1
1.863374404E0,-1.503798103E1,-9.636661530E0,-1.751358604E1,2.501463202E1
1.865372904E0,-1.479616642E1,-9.792284966E0,-1.816241455E1,2.539072051E1
1.867372558E0,-1.428380775E1,-1.006761837E1,-1.953429222E1,2.621016360E1
1.869370750E0,-1.370919895E1,-1.030943298E1,-2.085349655E1,2.700175666E1
1.871370750E0,-1.339555836E1,-1.043871975E1,-2.146162415E1,2.736803180E1
1.873387212E0,-1.272518158E1,-1.072841740E1,-2.265393639E1,2.811103022E1
1.875387366E0,-1.193988419E1,-1.110430717E1,-2.367625999E1,2.874772616E1
1.877385712E0,-1.153047562E1,-1.133415127E1,-2.413834190E1,2.905295859E1
1.879386058E0,-1.060152531E1,-1.189918232E1,-2.491885185E1,2.957925044E1
1.881384558E0,-9.516951561E0,-1.263420200E1,-2.548388290E1,2.999372793E1
1.883384635E0,-8.892065048E0,-1.302924538E1,-2.566105461E1,3.012174928E1
1.885382173E0,-7.505822182E0,-1.383848572E1,-2.581667709E1,3.023808641E1
1.887381943E0,-5.999869347E0,-1.466927338E1,-2.577836990E1,3.026070667E1
1.889388250E0,-5.209783077E0,-1.507868195E1,-2.568738937E1,3.023822848E1
1.891388058E0,-3.555389643E0,-1.585679817E1,-2.528037643E1,3.005289132E1
1.893422712E0,-1.889025092E0,-1.651999092E1,-2.469379616E1,2.977015426E1
1.895422519E0,-1.060631394E0,-1.679532433E1,-2.434184837E1,2.959279372E1
1.897419981E0,6.177040339E-1,-1.722388649E1,-2.349669456E1,2.913998077E1
1.899419981E0,2.279279947E0,-1.748724937E1,-2.246958351E1,2.856363406E1
1.901418558E0,3.098097086E0,-1.756865120E1,-2.189018631E1,2.823890875E1
1.903418366E0,4.762067318E0,-1.771948624E1,-2.056379890E1,2.755952291E1
1.905416673E0,6.454767704E0,-1.783201408E1,-1.908897018E1,2.690787125E1
1.907416096E0,7.331045628E0,-1.789426422E1,-1.832522011E1,2.664137035E1
1.909413750E0,9.191340446E0,-1.805946350E1,-1.677856636E1,2.630865352E1
1.911412942E0,1.123120022E1,-1.816002083E1,-1.529176617E1,2.626336474E1
1.913429173E0,1.229662037E1,-1.841619873E1,-1.457350540E1,2.650943809E1
1.915428366E0,1.449449730E1,-1.869153214E1,-1.321120453E1,2.709242977E1
1.917426327E0,1.673546982E1,-1.880405998E1,-1.257195282E1,2.813756598E1
1.919425558E0,1.784638023E1,-1.892855835E1,-1.138442898E1,2.839698632E1
1.921423596E0,2.012565994E1,-1.897644234E1,-1.035013390E1,2.953426524E1
1.923423135E0,2.127487564E1,-1.897404861E1,-9.871294022E0,3.016748747E1
1.925421250E0,2.351584816E1,-1.892137527E1,-8.963891029E0,3.148594765E1
1.927420750E0,2.576161003E1,-1.878730011E1,-8.195352554E0,3.292092040E1
1.929418712E0,2.688209724E1,-1.870110893E1,-7.862558365E0,3.367786293E1
1.931418365E0,2.906560898E1,-1.848323631E1,-7.299921036E0,3.520977843E1
1.933436827E0,3.117250633E1,-1.834916115E1,-6.766014099E0,3.679939962E1
1.935436519E0,3.217567825E1,-1.830127716E1,-6.557718277E0,3.759274778E1
1.937439904E0,3.414131546E1,-1.817438507E1,-6.279991150E0,3.918387402E1
1.939439981E0,3.603034210E1,-1.793017578E1,-6.098031521E0,4.070457891E1
1.941437712E0,3.693534851E1,-1.777694702E1,-6.007051945E0,4.142854678E1
1.943437519E0,3.863044357E1,-1.731965446E1,-5.865794182E0,4.273978408E1
1.945435442E0,4.012203217E1,-1.667082596E1,-5.743690014E0,4.382560756E1
1.947434981E0,4.075649643E1,-1.628057098E1,-5.635950565E0,4.424830993E1
1.949432596E0,4.172135925E1,-1.541147614E1,-5.193023682E0,4.477893377E1
1.951431981E0,4.229357147E1,-1.448492050E1,-4.455609322E0,4.492673552E1
1.953582365E0,4.241567612E1,-1.398692608E1,-3.967192173E0,4.483817899E1
1.955461135E0,4.225287247E1,-1.299333286E1,-2.631227732E0,4.428380392E1
1.957456442E0,4.163277435E1,-1.203086376E1,-1.005564690E0,4.334790357E1
1.959455942E0,4.111562729E1,-1.160948372E1,3.351882473E-2,4.272324944E1
1.961454135E0,3.975811386E1,-1.076193619E1,2.260126352E0,4.125087950E1
1.963454096E0,3.802471161E1,-9.952696800E0,4.599261284E0,3.957383063E1
1.965452750E0,3.702154160E1,-9.540893555E0,5.805939198E0,3.866952446E1
1.967452865E0,3.478775024E1,-8.585607529E0,8.190564156E0,3.675575553E1
1.969451404E0,3.245101166E1,-8.001421928E0,9.272743225E0,3.468536691E1
1.971451635E0,3.122517776E1,-6.799532890E0,1.140597725E1,3.393142630E1
1.973493750E0,2.865859413E1,-5.662287235E0,1.356554699E1,3.220870347E1
1.975492673E0,2.607046318E1,-5.123591423E0,1.467166805E1,3.035091569E1
1.977490981E0,2.480871773E1,-4.027047157E0,1.688151550E1,3.027664363E1
1.979490596E0,2.230917168E1,-2.916137695E0,1.895968246E1,2.942231397E1
1.981488827E0,2.111925316E1,-2.343923569E0,1.992215157E1,2.912746049E1
1.983488904E0,1.880884933E1,-1.139639974E0,2.163161278E1,2.868794632E1
1.985495750E0,1.679771996E1,2.106897533E-1,2.294363403E1,2.843621157E1
1.987495442E0,1.585919189E1,9.768342972E-1,2.349190712E1,2.836085106E1
1.989493481E0,1.414733791E1,2.590526342E0,2.433706093E1,2.826925063E1
1.991492827E0,1.268687439E1,4.297592163E0,2.498828316E1,2.835207885E1
1.993507981E0,1.205480576E1,5.214571476E0,2.526840401E1,2.847810279E1
1.995507519E0,1.097741508E1,7.129932880E0,2.579273415E1,2.892412003E1
1.997505865E0,1.015141487E1,8.995016098E0,2.635297775E1,2.963850494E1
1.999505481E0,9.835380554E0,9.883264542E0,2.661873436E1,3.004947000E1
2.001503404E0,9.411606789E0,1.149695683E1,2.711912346E1,3.092256807E1
2.003503134E0,9.188945770E0,1.277067184E1,2.758838654E1,3.175918537E1
2.005501134E0,9.169792175E0,1.328303146E1,2.781104660E1,3.215553337E1
2.007500442E0,9.289502144E0,1.412339592E1,2.815102386E1,3.283664579E1
2.009498981E0,9.696516991E0,1.473152351E1,2.808877373E1,3.316654092E1
2.011498865E0,9.921571732E0,1.486799240E1,2.822045517E1,3.340492290E1
2.013658557E0,1.045069027E1,1.486320400E1,2.854127884E1,3.383395274E1
2.015538134E0,1.118331623E1,1.461420727E1,2.897941780E1,3.432853437E1
2.017533019E0,1.162624359E1,1.446816063E1,2.921165466E1,3.460950708E1
2.019532442E0,1.263420200E1,1.424550056E1,2.946304703E1,3.508031480E1
2.021530673E0,1.374750614E1,1.412578964E1,2.946544075E1,3.545058613E1
2.023530134E0,1.429817295E1,1.408748245E1,2.938164330E1,3.558336513E1
2.025527981E0,1.532767963E1,1.396537876E1,2.907757950E1,3.571379560E1
2.027527327E0,1.621353340E1,1.389115810E1,2.856761551E1,3.566443039E1
2.029524942E0,1.657505798E1,1.367089176E1,2.822524452E1,3.547238725E1
2.031524365E0,1.722628212E1,1.331894398E1,2.737769699E1,3.498110000E1
2.033541865E0,1.752316284E1,1.311304283E1,2.687491417E1,3.465940190E1
2.035541173E0,1.806904030E1,1.267729759E1,2.578794670E1,3.394439993E1
2.037539134E0,1.848802567E1,1.230380249E1,2.464351845E1,3.317368913E1
2.039538173E0,1.864364815E1,1.214578533E1,2.405693817E1,3.276952840E1
2.041536057E0,1.882321358E1,1.187284660E1,2.286941528E1,3.191062537E1
2.043535288E0,1.880884933E1,1.166933918E1,2.171301460E1,3.100647180E1
2.045532827E0,1.875138855E1,1.158793640E1,2.113601303E1,3.053892417E1
2.047532403E0,1.863886070E1,1.146822643E1,2.000355530E1,2.964910741E1
2.049530788E0,1.848084259E1,1.138203526E1,1.897644234E1,2.883049832E1
2.051530211E0,1.837549782E1,1.133415127E1,1.853351593E1,2.845370130E1
2.053549827E0,1.809537697E1,1.125035381E1,1.779849625E1,2.776327785E1
2.055549173E0,1.767160225E1,1.120246983E1,1.731965446E1,2.716157740E1
2.057547057E0,1.739626884E1,1.119528675E1,1.718557930E1,2.689439999E1
2.059546365E0,1.671870995E1,1.119289303E1,1.712093544E1,2.641822377E1
2.061544134E0,1.585440350E1,1.125274754E1,1.732923126E1,2.604397615E1
2.063543096E0,1.539471722E1,1.130063248E1,1.752795029E1,2.592162522E1
2.065540788E0,1.437239265E1,1.144907284E1,1.812889481E1,2.581286048E1
2.067539826E0,1.327105999E1,1.166694450E1,1.890461731E1,2.587707833E1
2.069537596E0,1.270363426E1,1.180580902E1,1.934993744E1,2.598421692E1
2.071536711E0,1.156159973E1,1.214099693E1,2.032677269E1,2.634866378E1
2.073568134E0,1.039322948E1,1.247857952E1,2.134909630E1,2.682383415E1
2.075567480E0,9.806650162E0,1.266053867E1,2.184708977E1,2.708791166E1
2.077565211E0,8.592789650E0,1.303882217E1,2.288138580E1,2.770207093E1
2.079564826E0,7.338228226E0,1.322796440E1,2.389413261E1,2.827999662E1
2.081571326E0,6.706159115E0,1.360145950E1,2.436818504E1,2.870158032E1
2.083570865E0,5.437232018E0,1.404199314E1,2.521812630E1,2.937166930E1
2.085569211E0,4.797980309E0,1.428859615E1,2.558683395E1,2.969630729E1
2.087568634E0,3.794809580E0,1.513614273E1,2.573527336E1,3.009663921E1
2.089566788E0,2.609679937E0,1.589271069E1,2.558922768E1,3.023569505E1
2.091566211E0,1.838746905E0,1.609621811E1,2.571851540E1,3.039590864E1
2.093584557E0,3.423708379E-1,1.625902367E1,2.609679794E1,3.074924278E1
2.095584096E0,-1.022324085E0,1.623029327E1,2.647747612E1,3.107288702E1
2.097582173E0,-1.654393315E0,1.619677544E1,2.662352371E1,3.120712365E1
2.099581673E0,-2.770091295E0,1.617522621E1,2.683181763E1,3.145246868E1
2.101579557E0,-3.746925592E0,1.617761993E1,2.689885521E1,3.161175809E1
2.103578557E0,-4.187458992E0,1.618959236E1,2.689646149E1,3.167108072E1
2.105576134E0,-4.912901878E0,1.623508263E1,2.671210861E1,3.164255456E1
2.107575365E0,-5.485116005E0,1.632127380E1,2.634100723E1,3.146933648E1
2.109572903E0,-5.702988625E0,1.633085060E1,2.608243370E1,3.129719010E1
2.111572211E0,-6.035782337E0,1.626381302E1,2.552219009E1,3.085975485E1
2.113588672E0,-6.160281181E0,1.600763321E1,2.492603302E1,3.025723892E1
2.115587749E0,-6.129156113E0,1.580173111E1,2.464112473E1,2.990729490E1
2.117585096E0,-5.928043365E0,1.531810284E1,2.407609177E1,2.914522546E1
2.119583980E0,-5.547365189E0,1.471236992E1,2.353260803E1,2.830213296E1
2.121581172E0,-5.305551052E0,1.439154625E1,2.325727463E1,2.785976128E1
2.123580365E0,-4.833893299E0,1.373792934E1,2.280237770E1,2.705634225E1
2.125577749E0,-4.388571739E0,1.306515884E1,2.244324684E1,2.633737394E1
2.127577519E0,-4.158728123E0,1.271560478E1,2.229720116E1,2.600282300E1
2.129583365E0,-3.670311213E0,1.202368069E1,2.202904892E1,2.536373549E1
2.131582749E0,-3.100491285E0,1.168130970E1,2.174653435E1,2.487926443E1
2.133617442E0,-2.765302896E0,1.100853920E1,2.159809303E1,2.439902576E1
2.135616711E0,-2.030282974E0,1.039083576E1,2.133473206E1,2.381726913E1
2.137614095E0,-1.235408068E0,1.011789608E1,2.123178101E1,2.355178505E1
2.139612826E0,-8.571242094E-1,9.677363396E0,2.113840675E1,2.326409818E1
2.141610172E0,-1.173158810E-1,9.394847870E0,2.116713715E1,2.315868357E1
2.143609172E0,2.106897533E-1,9.303867340E0,2.123178101E1,2.318177867E1
2.145606634E0,7.637503147E-1,9.188945770E0,2.143528748E1,2.333434353E1
2.147605672E0,1.151610970E0,9.133879662E0,2.175132179E1,2.361935573E1
2.149603057E0,1.288080573E0,9.114726067E0,2.192131042E1,2.377564370E1
2.151602249E0,1.458068848E0,9.033323288E0,2.228283501E1,2.408841278E1
2.153617518E0,1.527500629E0,8.904036522E0,2.276407051E1,2.449118272E1
2.155616403E0,1.558625340E0,8.825027466E0,2.303940201E1,2.472093177E1
2.157613788E0,1.606509328E0,8.616731644E0,2.358767509E1,2.516361168E1
2.159613249E0,1.616086125E0,8.353369713E0,2.411200523E1,2.556910863E1
2.161610903E0,1.618480325E0,8.212111473E0,2.434663773E1,2.574523299E1
2.163610172E0,1.623268723E0,8.037335396E0,2.468661308E1,2.601273971E1
2.165608095E0,1.838746905E0,8.116343498E0,2.432748413E1,2.571152477E1
2.167607326E0,1.774103403E0,8.097189903E0,2.424608040E1,2.562390177E1
2.169604980E0,1.424550056E0,7.876923561E0,2.429635811E1,2.558101415E1
2.171604172E0,1.022324085E0,7.484274387E0,2.439452171E1,2.553727079E1
2.173771288E0,7.589619160E-1,7.297526836E0,2.442085648E1,2.549917944E1
2.175640018E0,1.149216816E-1,7.003039837E0,2.437536812E1,2.536167078E1
2.177642634E0,-5.363011956E-1,6.828263283E0,2.409764099E1,2.505212765E1
2.179641518E0,-8.331822157E-1,6.773196697E0,2.382709503E1,2.478509318E1
2.181647172E0,-1.462857246E0,6.713341713E0,2.313756561E1,2.413619379E1
2.183645980E0,-2.145204782E0,6.687005520E0,2.227804756E1,2.335871036E1
2.185643326E0,-2.482787132E0,6.663063526E0,2.180160141E1,2.293186585E1
2.187642057E0,-3.134010077E0,6.603208065E0,2.082237244E1,2.206797611E1
2.189639480E0,-3.785232782E0,6.581660271E0,2.031958961E1,2.169174869E1
2.191637864E0,-4.108449936E0,6.526593685E0,1.936909103E1,2.084796090E1
2.193787749E0,-4.673481941E0,6.440402508E0,1.846887207E1,2.011018283E1
2.195666095E0,-4.920084476E0,6.385335922E0,1.807861710E1,1.979434622E1
2.197659864E0,-5.372588634E0,6.153098583E0,1.745372963E1,1.927065149E1
2.199658903E0,-5.729324818E0,5.817910194E0,1.697249603E1,1.883451256E1
2.201656364E0,-5.868188381E0,5.626373768E0,1.675941277E1,1.862712090E1
2.203655057E0,-6.095637321E0,5.224148273E0,1.637873459E1,1.824038010E1
2.205651826E0,-6.306327343E0,4.788403511E0,1.600763321E1,1.785897236E1
2.207650557E0,-6.387730122E0,4.592078686E0,1.582327938E1,1.767106259E1
2.209647980E0,-6.555324078E0,4.187458992E0,1.544020653E1,1.728892895E1
2.211646826E0,-6.730101109E0,3.794809580E0,1.501643276E1,1.688751295E1
2.213668287E0,-6.818686485E0,3.620033026E0,1.479377270E1,1.668696602E1
2.215667249E0,-6.988674641E0,3.301604033E0,1.432211494E1,1.627467784E1
2.217664441E0,-7.187393665E0,3.021482468E0,1.383609200E1,1.588160652E1
2.219663864E0,-7.283161640E0,2.904166698E0,1.359906578E1,1.569755452E1
2.221661326E0,-7.436390400E0,2.712630510E0,1.310585976E1,1.531084016E1
2.223660441E0,-7.534552574E0,2.561795712E0,1.261504841E1,1.491548612E1
2.225665941E0,-7.570465565E0,2.487575531E0,1.239238834E1,1.473333872E1
2.227665287E0,-7.632715225E0,2.308010340E0,1.196861458E1,1.438168934E1
2.229662826E0,-7.694964409E0,2.059013367E0,1.163103199E1,1.409726635E1
2.231661864E0,-7.716512203E0,1.910573006E0,1.149935055E1,1.397962492E1
2.233677787E0,-7.625532627E0,1.510741234E0,1.133415127E1,1.374387398E1
2.235676634E0,-7.673416615E0,1.120486379E0,1.117613316E1,1.360304248E1
2.237673941E0,-7.762001991E0,9.026140571E-1,1.097741508E1,1.347468103E1
2.239672480E0,-7.924807549E0,4.357447028E-1,1.072123528E1,1.333931535E1
2.241669518E0,-7.951143742E0,1.963245422E-1,1.055842972E1,1.321891328E1
2.243668057E0,-7.917624950E0,-2.489969730E-1,1.045547867E1,1.311746235E1
2.245665595E0,-7.730877399E0,-6.009446383E-1,1.022084713E1,1.282939265E1
2.247663787E0,-7.599195957E0,-7.398083210E-1,1.007958889E1,1.264488860E1
2.249660826E0,-7.319074631E0,-9.888052940E-1,9.713275909E0,1.220222595E1
2.251659172E0,-7.015010834E0,-1.297657371E0,9.289502144E0,1.171277686E1
2.253811518E0,-6.655880928E0,-1.719036818E0,8.951920509E0,1.128683832E1
2.255689710E0,-6.459556103E0,-1.960851192E0,8.769960403E0,1.106720416E1
2.257683057E0,-6.105214119E0,-2.437297344E0,8.418013573E0,1.068068398E1
2.259681441E0,-5.949591160E0,-2.683900118E0,8.243236542E0,1.051436653E1
2.261677980E0,-5.667075634E0,-3.129221678E0,7.917624950E0,1.022724593E1
2.263676403E0,-5.430049419E0,-3.603273630E0,7.580042362E0,9.996302305E0
2.265673710E0,-5.322310448E0,-3.852270603E0,7.433996201E0,9.921253792E0
2.267672249E0,-5.114014626E0,-4.297592163E0,7.196970463E0,9.819308928E0
2.269669249E0,-4.936843872E0,-4.709394932E0,7.003039837E0,9.777187479E0
2.271668056E0,-4.860229492E0,-4.903325081E0,6.912060261E0,9.769391210E0
2.273683826E0,-4.721365929E0,-5.276820660E0,6.777985096E0,9.801898513E0
2.275682903E0,-4.644751072E0,-5.717353821E0,6.696582317E0,9.955202759E0
2.277680172E0,-4.632780075E0,-5.956773758E0,6.687005520E0,1.008275000E1
2.279679364E0,-4.599261284E0,-6.464344501E0,6.708553314E0,1.038968920E1
2.281677095E0,-4.589684486E0,-7.005434036E0,6.703764915E0,1.072761734E1
2.283676249E0,-4.604049683E0,-7.285555840E0,6.696582317E0,1.091424812E1
2.285673518E0,-4.671087742E0,-7.862558365E0,6.658275127E0,1.131244944E1
2.287672172E0,-4.836287498E0,-8.441955566E0,6.617573261E0,1.176641689E1
2.289669210E0,-4.955997467E0,-8.743624687E0,6.615179062E0,1.203218507E1
2.291668095E0,-5.315127850E0,-9.354146004E0,6.576871872E0,1.260975318E1
2.293689441E0,-5.935225964E0,-9.648633003E0,6.526593685E0,1.307361661E1
2.295687287E0,-6.370970726E0,-1.018014526E1,6.478709698E0,1.364544997E1
2.297684633E0,-7.517793179E0,-1.060391903E1,6.311115742E0,1.444958459E1
2.299683903E0,-8.214506149E0,-1.075954247E1,6.200982571E0,1.488952821E1
2.301681826E0,-9.897629738E0,-1.091755962E1,5.906495571E0,1.587585817E1
2.303680479E0,-1.188002872E1,-1.096783829E1,5.554547787E0,1.709624404E1
2.305677287E0,-1.291193008E1,-1.096304989E1,5.365406036E0,1.776777936E1
2.307676133E0,-1.495897198E1,-1.091516590E1,4.939238071E0,1.916527490E1
2.309673364E0,-1.695812988E1,-1.082418633E1,4.381389141E0,2.058974865E1
2.311672633E0,-1.789426422E1,-1.079545593E1,4.067748547E0,2.129068198E1
2.313703479E0,-1.952231979E1,-1.074278259E1,3.359065056E0,2.253467697E1
2.315702364E0,-2.085110283E1,-1.069489861E1,2.578555346E0,2.357537472E1
2.317699979E0,-2.143768120E1,-1.067095661E1,2.130839586E0,2.404129713E1
2.319699095E0,-2.250789070E1,-1.063983250E1,1.189918280E0,2.492442747E1
2.321704210E0,-2.336740875E1,-1.064940929E1,2.322375625E-1,2.568072515E1
2.323702979E0,-2.370977974E1,-1.062307262E1,-2.250549644E-1,2.598180088E1
2.325699902E0,-2.425326347E1,-1.062786102E1,-1.161187768E0,2.650510472E1
2.327699133E0,-2.451423073E1,-1.084573364E1,-2.097320795E0,2.688821677E1
2.329696518E0,-2.459324074E1,-1.091277122E1,-2.592920542E0,2.703034041E1
2.331695556E0,-2.476562309E1,-1.100614548E1,-3.457227230E0,2.732075668E1
2.333712941E0,-2.474646950E1,-1.126232433E1,-4.311957359E0,2.752854297E1
2.335711633E0,-2.465070152E1,-1.141555405E1,-4.757278919E0,2.757904390E1
2.337708595E0,-2.441367531E1,-1.169328117E1,-5.671864033E0,2.765737530E1
2.339707364E0,-2.415988922E1,-1.196143150E1,-6.538564682E0,2.774038426E1
2.341704825E0,-2.401144791E1,-1.214339066E1,-7.010222435E0,2.780566104E1
2.343703095E0,-2.363316536E1,-1.245224285E1,-7.996633530E0,2.788424295E1
2.345700556E0,-2.323333359E1,-1.254561710E1,-8.470685959E0,2.772963791E1
2.347699095E0,-2.301306725E1,-1.265575027E1,-9.461885452E0,2.791588357E1
2.349696595E0,-2.254140854E1,-1.259589481E1,-1.044829655E1,2.785567385E1
2.351695210E0,-2.231156540E1,-1.253843403E1,-1.094629002E1,2.783593978E1
2.353710710E0,-2.177287102E1,-1.230140877E1,-1.196382618E1,2.772211584E1
2.355709633E0,-2.122938728E1,-1.204044056E1,-1.288080502E1,2.759663442E1
2.357707172E0,-2.095644760E1,-1.192791271E1,-1.327345467E1,2.752512301E1
2.359706287E0,-2.037226295E1,-1.180102062E1,-1.392946529E1,2.735549650E1
2.361703556E0,-1.970667458E1,-1.181777954E1,-1.437478733E1,2.710438059E1
2.363702556E0,-1.936430359E1,-1.191354752E1,-1.448970890E1,2.696035111E1
2.365699979E0,-1.866998482E1,-1.226310158E1,-1.449449730E1,2.662785093E1
2.367698941E0,-1.805946350E1,-1.281616211E1,-1.418325043E1,2.629758213E1
2.369704364E0,-1.778891945E1,-1.314656162E1,-1.388876438E1,2.611848988E1
2.371703633E0,-1.727655983E1,-1.389355278E1,-1.308431244E1,2.574314589E1
2.373737325E0,-1.680011368E1,-1.465251446E1,-1.200213337E1,2.531780411E1
2.375736210E0,-1.657505798E1,-1.501882744E1,-1.137964058E1,2.509569574E1
2.377733787E0,-1.618480301E1,-1.572272301E1,-1.004607010E1,2.469970428E1
2.379732748E0,-1.574905872E1,-1.628296661E1,-8.635885239E0,2.424348090E1
2.381729941E0,-1.546654320E1,-1.641943550E1,-7.915230751E0,2.390528599E1
2.383729056E0,-1.501164436E1,-1.674265289E1,-6.505045891E0,2.340900499E1
2.385727095E0,-1.479137802E1,-1.711375427E1,-5.114014626E0,2.319091621E1
2.387726018E0,-1.475067711E1,-1.732923126E1,-4.446032524E0,2.318732275E1
2.389724248E0,-1.477940750E1,-1.778413010E1,-3.138798475E0,2.333577137E1
2.391722979E0,-1.489672279E1,-1.826296997E1,-1.766920805E0,2.363409468E1
2.393760710E0,-1.499249077E1,-1.850238991E1,-1.031900883E0,2.383648529E1
2.395759671E0,-1.526303577E1,-1.891898155E1,4.548983276E-1,2.431244653E1
2.397757210E0,-1.567723274E1,-1.906502724E1,1.920149803E0,2.475758198E1
2.399756018E0,-1.595735455E1,-1.926853561E1,2.621650934E0,2.515525159E1
2.401753364E0,-1.659660530E1,-1.941697502E1,3.881000996E0,2.583657089E1
2.403752056E0,-1.695573616E1,-1.945288849E1,4.436455727E0,2.618384996E1
2.405749556E0,-1.770512199E1,-1.944810104E1,5.341464043E0,2.683712386E1
2.407748210E0,-1.849520874E1,-1.938585091E1,6.004657745E0,2.745796563E1
2.409745287E0,-1.889504051E1,-1.933796692E1,6.241683960E0,2.774775917E1
2.411743979E0,-1.969949150E1,-1.919192123E1,6.495469093E0,2.825935110E1
2.413761210E0,-2.044648170E1,-1.900038528E1,6.495469093E0,2.865771055E1
2.415759864E0,-2.078885269E1,-1.889504051E1,6.428431511E0,2.881880782E1
2.417762671E0,-2.143768120E1,-1.862210083E1,6.246472359E0,2.907533717E1
2.419761479E0,-2.196919441E1,-1.832043076E1,5.951985359E0,2.921831302E1
2.421758787E0,-2.220861435E1,-1.817199135E1,5.755661011E0,2.926724200E1
2.423757402E0,-2.262520599E1,-1.788947487E1,5.303156853E0,2.932672382E1
2.425754479E0,-2.294363403E1,-1.757344055E1,4.821922302E0,2.929995034E1
2.427752517E0,-2.306573868E1,-1.744654846E1,4.592078686E0,2.928305894E1
2.429749825E0,-2.332431221E1,-1.722149277E1,4.098873138E0,2.928146366E1
2.431748479E0,-2.357570457E1,-1.700362015E1,3.586514235E0,2.928822338E1
2.433899210E0,-2.367386627E1,-1.688869858E1,3.349488258E0,2.927283989E1
2.435778287E0,-2.381033516E1,-1.673786354E1,2.877830505E0,2.924670998E1
2.437772979E0,-2.393243980E1,-1.661815453E1,2.511517525E0,2.924435766E1
2.439771594E0,-2.397314072E1,-1.658702850E1,2.355894566E0,2.924707215E1
2.441768902E0,-2.401863098E1,-1.656548119E1,2.130839586E0,2.925491888E1
2.443767864E0,-2.404018021E1,-1.648886681E1,2.054224968E0,2.922384015E1
2.445764864E0,-2.402102470E1,-1.646492577E1,2.054224968E0,2.919457567E1
2.447763479E0,-2.391089249E1,-1.646013641E1,2.094926596E0,2.910421941E1
2.449761133E0,-2.368583679E1,-1.644337654E1,2.238578558E0,2.892083558E1
2.451760671E0,-2.350866699E1,-1.635239792E1,2.387019157E0,2.873597400E1
2.453780863E0,-2.307292175E1,-1.622071648E1,2.753331900E0,2.833817563E1
2.455779133E0,-2.284307861E1,-1.618001556E1,2.947262287E0,2.814756649E1
2.457776517E0,-2.240254593E1,-1.613931274E1,3.390189648E0,2.781806725E1
2.459776017E0,-2.207693481E1,-1.612015915E1,3.885789394E0,2.761068527E1
2.461773402E0,-2.194764709E1,-1.609382439E1,4.115632534E0,2.752542148E1
2.463772748E0,-2.172498703E1,-1.602199745E1,4.568136692E0,2.737786216E1
2.465779556E0,-2.148556519E1,-1.590228748E1,5.087678432E0,2.721023209E1
2.467779017E0,-2.136106682E1,-1.582088470E1,5.384559631E0,2.712174498E1
2.469777094E0,-2.109291649E1,-1.561977196E1,6.052541733E0,2.693550934E1
2.471776479E0,-2.076491165E1,-1.534922695E1,6.823474884E0,2.670842813E1
2.473791748E0,-2.056858635E1,-1.519120979E1,7.228095055E0,2.657225917E1
2.475791479E0,-2.015678406E1,-1.484165668E1,8.130708694E0,2.631879824E1
2.477789671E0,-1.970428085E1,-1.450407410E1,9.157821655E0,2.612455831E1
2.479789094E0,-1.946485901E1,-1.433648014E1,9.727641106E0,2.605844202E1
2.481786902E0,-1.899320221E1,-1.401565647E1,1.095586681E1,2.602328523E1
2.483786094E0,-1.841859436E1,-1.360145950E1,1.224634171E1,2.596569283E1
2.485784056E0,-1.814086533E1,-1.329739666E1,1.284010410E1,2.589942135E1
2.487783556E0,-1.751837349E1,-1.264856720E1,1.395101357E1,2.571984528E1
2.489781210E0,-1.697488976E1,-1.204283428E1,1.501164436E1,2.566176545E1
2.491780402E0,-1.684081459E1,-1.185369301E1,1.555991650E1,2.581151052E1
2.493933440E0,-1.660139465E1,-1.161187840E1,1.671631622E1,2.626551451E1
2.495812825E0,-1.633085060E1,-1.156638813E1,1.809777069E1,2.698161077E1
2.497807363E0,-1.618480301E1,-1.152808094E1,1.883757973E1,2.738063017E1
2.499806209E0,-1.580412579E1,-1.140837097E1,2.017354393E1,2.805161662E1
2.501803863E0,-1.543781281E1,-1.132217979E1,2.136585617E1,2.868828384E1
2.503802863E0,-1.525106525E1,-1.110670185E1,2.196440697E1,2.895494761E1
2.505800286E0,-1.489193439E1,-1.092713642E1,2.313038254E1,2.960044960E1
2.507799056E0,-1.474349403E1,-1.085291672E1,2.361879921E1,2.988317409E1
2.509796286E0,-1.448252583E1,-1.066616821E1,2.443761635E1,3.034316713E1
2.511795132E0,-1.420001030E1,-1.033098030E1,2.511278152E1,3.064345350E1
2.513810132E0,-1.402044487E1,-1.011789608E1,2.539529800E1,3.072239991E1
2.515808863E0,-1.363497829E1,-9.658209801E0,2.592202187E1,3.084063662E1
2.517806094E0,-1.320641613E1,-9.236829758E0,2.637931442E1,3.091272684E1
2.519804594E0,-1.297417927E1,-9.035717010E0,2.657085037E1,3.091898444E1
2.521802286E0,-1.253364563E1,-8.619126320E0,2.687730789E1,3.088318783E1
2.523801248E0,-1.197579670E1,-8.104372978E0,2.702814293E1,3.065323928E1
2.525798863E0,-1.167173290E1,-7.819462776E0,2.701856613E1,3.045285312E1
2.527797594E0,-1.103248119E1,-7.206547260E0,2.684857750E1,2.990812730E1
2.529794940E0,-1.033098030E1,-6.610390663E0,2.653014946E1,2.922798743E1
2.531793979E0,-9.983820915E0,-6.315904140E0,2.633143044E1,2.886020710E1
2.533811094E0,-9.303867340E0,-5.793968201E0,2.594117546E1,2.816161571E1
2.535809940E0,-8.662221909E0,-5.346252441E0,2.570175552E1,2.764410860E1
2.537807709E0,-8.360552788E0,-5.142745018E0,2.564190102E1,2.745639738E1
2.539806632E0,-7.793126583E0,-4.778826714E0,2.558204460E1,2.716635810E1
2.541804286E0,-7.204153061E0,-4.448426723E0,2.555570984E1,2.692178722E1
2.543803248E0,-6.924031258E0,-4.283226967E0,2.558204460E1,2.684640103E1
2.545800825E0,-6.390124321E0,-3.940855980E0,2.566344833E1,2.673904664E1
2.547800017E0,-5.872976780E0,-3.591302633E0,2.574006271E1,2.664470190E1
2.549797632E0,-5.616796970E0,-3.399766445E0,2.578076363E1,2.660365752E1
2.551797325E0,-5.111620426E0,-2.985569477E0,2.590765572E1,2.657534408E1
2.553827786E0,-4.625597477E0,-2.540247917E0,2.596751213E1,2.649831500E1
2.555827248E0,-4.398148537E0,-2.334346771E0,2.596751213E1,2.644058569E1
2.557824940E0,-3.969586372E0,-1.908178806E0,2.591962814E1,2.629117505E1
2.559823825E0,-3.775655985E0,-1.692700624E0,2.588371468E1,2.621235394E1
2.561829671E0,-3.397372246E0,-1.288080573E0,2.583104134E1,2.608532128E1
2.563828902E0,-3.009511471E0,-8.882488012E-1,2.572330284E1,2.591398183E1
2.565826478E0,-2.806004286E0,-6.967126727E-1,2.565387154E1,2.581627768E1
2.567826094E0,-2.408566952E0,-3.303998411E-1,2.545993996E1,2.557574831E1
2.569823671E0,-1.953668594E0,4.788403213E-2,2.508644485E1,2.516244879E1
2.571823017E0,-1.740584612E0,2.274491638E-1,2.484223747E1,2.490417898E1
2.573841171E0,-1.338358760E0,5.913678408E-1,2.457887459E1,2.462238811E1
2.575840363E0,-8.355764151E-1,8.834604025E-1,2.420777321E1,2.423829561E1
2.577837709E0,-5.506663918E-1,1.010353088E0,2.399468994E1,2.402226451E1
2.579836594E0,1.675941236E-2,1.295263171E0,2.356373405E1,2.359931249E1
2.581834132E0,6.584054828E-1,1.561019540E0,2.314474869E1,2.320667300E1
2.583833825E0,1.036689281E0,1.704671621E0,2.293166351E1,2.301829319E1
2.585831055E0,1.865083098E0,1.960851192E0,2.255098534E1,2.271278081E1
2.587830555E0,2.715024710E0,2.219424963E0,2.223255730E1,2.250741678E1
2.589828286E0,3.141192675E0,2.334346771E0,2.206975174E1,2.241406273E1
2.591827555E0,3.943250179E0,2.530671120E0,2.172019768E1,2.221982235E1
2.593842901E0,4.754884720E0,2.650381327E0,2.138740349E1,2.206931077E1
2.595841863E0,5.142745018E0,2.686294317E0,2.122220421E1,2.200104441E1
2.597838786E0,5.940014362E0,2.703053713E0,2.090138054E1,2.189652891E1
2.599837901E0,6.809109688E0,2.683900118E0,2.059492302E1,2.185676437E1
2.601835209E0,7.259219646E0,2.664746523E0,2.045127106E1,2.186439187E1
2.603834555E0,8.183381081E0,2.638410330E0,2.015439034E1,2.191183207E1
2.605831940E0,9.114726067E0,2.616862535E0,1.987666321E1,2.202289584E1
2.607831017E0,9.552865028E0,2.607285738E0,1.975695229E1,2.209960029E1
2.609837709E0,1.045547867E1,2.592920542E0,1.953189659E1,2.230549833E1
2.611836978E0,1.088164711E1,2.592920542E0,1.944810104E1,2.243573299E1
2.613870440E0,1.166933918E1,2.616862535E0,1.936190987E1,2.275752623E1
2.615869555E0,1.236126328E1,2.626439333E0,1.933557320E1,2.309899141E1
2.617866978E0,1.268448067E1,2.621650934E0,1.934036064E1,2.327699837E1
2.619866324E0,1.330218506E1,2.602497339E0,1.939782143E1,2.366424721E1
2.621864440E0,1.389355278E1,2.578555346E0,1.953429222E1,2.410950703E1
2.623863709E0,1.418803883E1,2.564189911E0,1.962048340E1,2.434828299E1
2.625861286E0,1.482489681E1,2.473210335E0,1.977849960E1,2.484116304E1
2.627860824E0,1.547372532E1,2.348711967E0,1.987905693E1,2.530078117E1
2.629858709E0,1.579694271E1,2.262520552E0,1.986469078E1,2.548074446E1
2.631858170E0,1.640506935E1,2.099714994E0,1.966118431E1,2.569235824E1
2.633874247E0,1.698446655E1,1.994369984E0,1.918952751E1,2.570384372E1
2.635873286E0,1.724304008E1,1.944091797E0,1.885194397E1,2.562221137E1
2.637871478E0,1.769554520E1,1.893813491E0,1.795651245E1,2.528151872E1
2.639871055E0,1.807143402E1,1.970427990E0,1.675222969E1,2.472036637E1
2.641869286E0,1.824142265E1,2.082955360E0,1.604833412E1,2.438518467E1
2.643868440E0,1.861970711E1,2.439691544E0,1.450407410E1,2.372791084E1
2.645866170E0,1.909136391E1,2.942473888E0,1.284489250E1,2.319762039E1
2.647865517E0,1.939303398E1,3.248931646E0,1.202128696E1,2.304683631E1
2.649871517E0,2.013044739E1,3.897760391E0,1.049618053E1,2.303469674E1
2.651870632E0,2.102827263E1,4.570530891E0,9.193734169E0,2.340091345E1
2.654034747E0,2.149514198E1,4.896142483E0,8.628703117E0,2.367420236E1
2.655904170E0,2.237860298E1,5.547365189E0,7.697358608E0,2.430688095E1
2.657907132E0,2.319263268E1,6.210559368E0,7.003039837E0,2.501023441E1
2.659906824E0,2.349909019E1,6.567295074E0,6.713341713E0,2.530623563E1
2.661913286E0,2.396117020E1,7.309497833E0,6.224924564E0,2.581309981E1
2.663912747E0,2.423171616E1,7.718906403E0,5.817910194E0,2.608842009E1
2.665910517E0,2.430593491E1,8.590395927E0,5.633556366E0,2.638769280E1
2.667909670E0,2.444479942E1,9.536105156E0,5.267243862E0,2.676246211E1
2.669907363E0,2.448310661E1,1.006043530E1,5.109226227E0,2.695809823E1
2.671907055E0,2.461478806E1,1.122880554E1,4.898536682E0,2.749490001E1
2.674057593E0,2.483026505E1,1.246900272E1,4.869806290E0,2.820874163E1
2.675937132E0,2.493082237E1,1.309388924E1,4.941632271E0,2.859048039E1
2.677932209E0,2.510081100E1,1.440112305E1,5.310339451E0,2.942180761E1
2.679932016E0,2.509362793E1,1.579933739E1,6.004657745E0,3.025500189E1
2.681930478E0,2.498588943E1,1.650083733E1,6.469132900E0,3.063367402E1
2.683929978E0,2.452859688E1,1.798763657E1,7.690176010E0,3.137428790E1
2.685928209E0,2.365231895E1,1.951034927E1,9.272743225E0,3.203232254E1
2.687927440E0,2.306334496E1,2.027888870E1,1.020648193E1,3.236237755E1
2.689925516E0,2.162203598E1,2.184708977E1,1.228704357E1,3.310255596E1
2.691925016E0,1.991736412E1,2.343444633E1,1.450167942E1,3.400254953E1
2.693945863E0,1.895010567E1,2.422453308E1,1.565089607E1,3.450920248E1
2.695945247E0,1.676659393E1,2.580231094E1,1.803791618E1,3.566853435E1
2.697943170E0,1.429338455E1,2.743994522E1,2.053027916E1,3.713143948E1
2.699942747E0,1.296939087E1,2.829706955E1,2.181596565E1,3.801138779E1
2.701940978E0,1.013944435E1,3.005680847E1,2.440409851E1,4.002224496E1
2.703940247E0,7.158663273E0,3.189316177E1,2.693716240E1,4.235600248E1
2.705946363E0,5.631162167E0,3.283168793E1,2.817736053E1,4.363018870E1
2.707945478E0,2.602497339E0,3.470634842E1,3.059310913E1,4.633834200E1
2.709943016E0,-2.825157940E-1,3.651636505E1,3.274310303E1,4.904727849E1
2.711942132E0,-1.632845521E0,3.739743042E1,3.371993637E1,5.038122761E1
2.713978209E0,-4.127603531E0,3.906858444E1,3.541503143E1,5.289249335E1
2.715977593E0,-6.318298340E0,4.055059433E1,3.676296616E1,5.509797886E1
2.717975555E0,-7.321468830E0,4.122336578E1,3.730644989E1,5.607799030E1
2.719975247E0,-9.136273384E0,4.247313690E1,3.810372162E1,5.778695745E1
2.721973670E0,-1.063504410E1,4.305492783E1,3.859931946E1,5.879403401E1
2.723973247E0,-1.128387260E1,4.406528091E1,3.876931000E1,5.976733356E1
2.725970939E0,-1.233492756E1,4.492001343E1,3.883395004E1,6.064679481E1
2.727970209E0,-1.270842266E1,4.529111481E1,3.874057770E1,6.093949005E1
2.729968209E0,-1.316092682E1,4.586572266E1,3.852510071E1,6.132746444E1
2.731967247E0,-1.331415558E1,4.619372940E1,3.823300552E1,6.142385600E1
2.734119247E0,-1.314177322E1,4.630146790E1,3.776613617E1,6.117853524E1
2.735998978E0,-1.293587208E1,4.630385971E1,3.749080276E1,6.096674915E1
2.737993709E0,-1.237084007E1,4.617457581E1,3.694731903E1,6.041716245E1
2.739993093E0,-1.198058510E1,4.606444168E1,3.668395996E1,6.009309549E1
2.741990862E0,-1.100853920E1,4.577234650E1,3.617878342E1,5.937339479E1
2.743990439E0,-9.933543205E0,4.532942200E1,3.563769150E1,5.851048483E1
2.745988593E0,-9.368511200E0,4.505169296E1,3.535757065E1,5.803086974E1
2.747987478E0,-8.171410561E0,4.446990204E1,3.477577972E1,5.704120435E1
2.749985055E0,-6.943184853E0,4.384740829E1,3.425384521E1,5.607253287E1
2.751984824E0,-6.313509941E0,4.352898026E1,3.404315567E1,5.561986136E1
2.754000593E0,-5.032611847E0,4.285860443E1,3.368402481E1,5.474304233E1
2.755999978E0,-3.778050184E0,4.219301605E1,3.343981552E1,5.396985760E1
2.757997708E0,-3.213018656E0,4.184825134E1,3.335362244E1,5.361029527E1
2.759997285E0,-2.276885748E0,4.113717270E1,3.329137421E1,5.296948917E1
2.761995055E0,-1.611297727E0,4.038778687E1,3.336080551E1,5.240909227E1
2.763994362E0,-1.395819545E0,3.998077393E1,3.344939041E1,5.214664241E1
2.765992747E0,-1.237802267E0,3.912843704E1,3.363135147E1,5.161041117E1
2.767992285E0,-1.290474772E0,3.825215912E1,3.380133820E1,5.106293633E1
2.769990132E0,-1.386242747E0,3.781162643E1,3.387077332E1,5.078257622E1
2.771989708E0,-1.723825216E0,3.690901184E1,3.405033493E1,5.024611465E1
2.774010478E0,-2.130839586E0,3.646129608E1,3.425384521E1,5.007287191E1
2.776009285E0,-2.353500366E0,3.558023071E1,3.435679626E1,4.951647434E1
2.778007439E0,-2.870647907E0,3.464410019E1,3.444777298E1,4.893979322E1
2.780006978E0,-3.184288263E0,3.412455750E1,3.450284195E1,4.863199789E1
2.782005285E0,-3.883395195E0,3.299209976E1,3.464410019E1,4.799763622E1
2.784005247E0,-4.627991676E0,3.179739189E1,3.472310638E1,4.730947638E1
2.786003401E0,-4.967968464E0,3.116771698E1,3.469916534E1,4.690564324E1
2.788002862E0,-5.640739441E0,2.984611893E1,3.462494659E1,4.605969695E1
2.790001208E0,-6.212953568E0,2.849578857E1,3.456748581E1,4.522744558E1
2.792000631E0,-6.428431511E0,2.779907608E1,3.448608017E1,4.475939106E1
2.794031670E0,-6.691793919E0,2.643677521E1,3.417962265E1,4.372561942E1
2.796031324E0,-6.684611320E0,2.498349380E1,3.358586121E1,4.238949238E1
2.798029324E0,-6.639121532E0,2.419580269E1,3.319081879E1,4.160703371E1
2.800028978E0,-6.598419666E0,2.261084175E1,3.238636780E1,4.004580035E1
2.802035554E0,-6.564900875E0,2.101151466E1,3.154121399E1,3.846335726E1
2.804034747E0,-6.524199486E0,2.022621536E1,3.106476784E1,3.763887309E1
2.806032824E0,-6.380547523E0,1.871547508E1,3.003526115E1,3.595966222E1
2.808032362E0,-6.124367714E0,1.720473289E1,2.894829369E1,3.422739285E1
2.810030362E0,-5.983109951E0,1.643379974E1,2.838805008E1,3.334289678E1
2.812029631E0,-5.640739441E0,1.486559868E1,2.726516914E1,3.156253181E1
2.814048593E0,-5.281609058E0,1.327345467E1,2.617101860E1,2.981614005E1
2.816048208E0,-5.092466831E0,1.248336792E1,2.563232422E1,2.896176338E1
2.818046131E0,-4.678270340E0,1.091277122E1,2.457169151E1,2.728997642E1
2.820045708E0,-4.273650169E0,9.385271072E0,2.355655098E1,2.571494688E1
2.822044131E0,-4.060565948E0,8.619126320E0,2.308249855E1,2.497156931E1
2.824043439E0,-3.622427225E0,7.144298077E0,2.222298050E1,2.362252815E1
2.826041131E0,-3.213018656E0,5.662287235E0,2.138500977E1,2.235405172E1
2.828040862E0,-3.002328873E0,4.936843872E0,2.094208145E1,2.172457552E1
2.830039131E0,-2.432508945E0,3.677493811E0,2.024058151E1,2.071526491E1
2.832038324E0,-2.169146776E0,3.066972494E0,1.990778732E1,2.025910941E1
2.834053477E0,-2.061407566E0,1.508347034E0,1.882800293E1,1.900047911E1
2.836052747E0,-1.874659896E0,-5.267243832E-2,1.792538834E1,1.802322588E1
2.838050477E0,-1.673547029E0,-6.871358752E-1,1.750400925E1,1.759725135E1
2.840049824E0,-1.233013868E0,-1.786074519E0,1.655829811E1,1.669992879E1
2.842048131E0,-8.906430602E-1,-3.177105665E0,1.545217800E1,1.580053956E1
2.844047708E0,-7.086837292E-1,-3.945644379E0,1.488475227E1,1.541512869E1
2.846045477E0,-2.585737705E-1,-5.207388878E0,1.387918758E1,1.482617979E1
2.848044362E0,2.968810201E-1,-6.179434776E0,1.272039318E1,1.414503288E1
2.850050285E0,6.344634295E-1,-6.655880928E0,1.210268974E1,1.382672752E1
2.852049477E0,1.443703651E0,-7.601590633E0,1.087925243E1,1.335015333E1
2.854083900E0,2.312798738E0,-8.619126320E0,9.660603523E0,1.315164009E1
2.856083131E0,2.743755102E0,-9.102754593E0,9.016563416E0,1.310292903E1
2.858080862E0,3.584120035E0,-9.907206535E0,7.697358608E0,1.304791122E1
2.860079900E0,4.455609322E0,-1.061110210E1,6.303933144E0,1.312202406E1
2.862077516E0,4.953603268E0,-1.104445267E1,5.549759388E0,1.331607860E1
2.864076708E0,5.949591160E0,-1.193030739E1,4.010287762E0,1.392164779E1
2.866074208E0,6.792350292E0,-1.271321106E1,2.305616140E0,1.459717862E1
2.868073670E0,7.225700855E0,-1.304121685E1,1.410184860E0,1.497573742E1
2.870071439E0,8.154650688E0,-1.359667110E1,-4.094084799E-1,1.585986785E1
2.872070900E0,9.107542992E0,-1.404438686E1,-2.341529369E0,1.690192005E1
2.874086631E0,9.557653427E0,-1.420001030E1,-3.325546265E0,1.743698052E1
2.876086554E0,1.046984386E1,-1.440591145E1,-5.267243862E0,1.857126202E1
2.878085054E0,1.110430717E1,-1.445379543E1,-7.134721279E0,1.957350474E1
2.880085054E0,1.145625496E1,-1.443224812E1,-8.046912193E0,2.010692317E1
2.882083670E0,1.212184334E1,-1.431732655E1,-9.792284966E0,2.116161077E1
2.884083516E0,1.265814400E1,-1.423831749E1,-1.133654499E1,2.216924777E1
2.886081593E0,1.286643982E1,-1.403959846E1,-1.203325748E1,2.252675930E1
2.888081246E0,1.320641613E1,-1.383130360E1,-1.322796440E1,2.325281549E1
2.890079208E0,1.332133865E1,-1.371159267E1,-1.373314095E1,2.353858529E1
2.892078670E0,1.341710663E1,-1.341471195E1,-1.458068848E1,2.392842919E1
2.894096900E0,1.335485744E1,-1.304361057E1,-1.514571953E1,2.403915169E1
2.896096785E0,1.327105999E1,-1.284728622E1,-1.530852604E1,2.399009725E1
2.898099900E0,1.300051498E1,-1.239717674E1,-1.538035202E1,2.364864921E1
2.900099362E0,1.259350109E1,-1.187524033E1,-1.514811420E1,2.300180355E1
2.902097362E0,1.234450436E1,-1.159990692E1,-1.492305946E1,2.257525929E1
2.904096785E0,1.175313568E1,-1.107318306E1,-1.427901936E1,2.155555555E1
2.906094785E0,1.114500904E1,-1.057758331E1,-1.342189503E1,2.040205287E1
2.908094208E0,1.086967564E1,-1.037168217E1,-1.290235329E1,1.980384709E1
2.910091862E0,1.033098030E1,-1.001494598E1,-1.173877048E1,1.856951883E1
2.912090900E0,9.809044838E0,-9.744400978E0,-1.040280628E1,1.730286362E1
2.914240669E0,9.555258751E0,-9.631873131E0,-9.667786598E0,1.665959326E1
2.916118131E0,9.045293808E0,-9.418789864E0,-8.080430984E0,1.535657213E1
2.918112092E0,8.511386871E0,-9.222464561E0,-6.380547523E0,1.407866989E1
2.920110823E0,8.236053467E0,-9.133879662E0,-5.528211594E0,1.348411873E1
2.922108708E0,7.702147007E0,-8.930372238E0,-3.835511208E0,1.240103879E1
2.924107823E0,7.177816868E0,-8.683769226E0,-2.082955360E0,1.145720760E1
2.926105592E0,6.868964672E0,-8.590395927E0,-1.268926859E0,1.107193539E1
2.928104631E0,6.203376770E0,-8.403648376E0,1.843535304E-1,1.044687396E1
2.930102169E0,5.595249176E0,-8.183381081E0,1.288080573E0,9.996683991E0
2.932101092E0,5.240907669E0,-8.188169479E0,1.762132406E0,9.880199554E0
2.934121054E0,4.197035789E0,-8.453926086E0,2.363077164E0,9.729753819E0
2.936119362E0,3.201047659E0,-8.623914719E0,2.911349297E0,9.648552530E0
2.938117554E0,2.736572504E0,-8.947132111E0,3.229778051E0,9.898053765E0
2.940116669E0,1.824381709E0,-9.188945770E0,3.866635799E0,1.013488852E1
2.942114477E0,1.369483352E0,-9.253589630E0,4.122815132E0,1.022262248E1
2.944113785E0,4.644751251E-1,-9.337387085E0,4.501099110E0,1.037605069E1
2.946120015E0,-3.974374831E-1,-9.483432770E0,4.752490520E0,1.061506570E1
2.948119708E0,-8.116343617E-1,-9.550470352E0,4.819528103E0,1.072837758E1
2.950117785E0,-1.546654344E0,-9.732429504E0,4.836287498E0,1.097734032E1
2.952116746E0,-2.118868589E0,-9.880870819E0,4.730942726E0,1.115809264E1
2.954135746E0,-2.322375536E0,-9.962273598E0,4.620809078E0,1.122462471E1
2.956134746E0,-2.643198729E0,-1.010113716E1,4.235342979E0,1.126754639E1
2.958132438E0,-2.944868088E0,-1.021845245E1,3.646369219E0,1.124210955E1
2.960131631E0,-3.112462282E0,-1.030464458E1,3.280056238E0,1.125308360E1
2.962128977E0,-3.426102638E0,-1.050815105E1,2.439691544E0,1.131863564E1
2.964128169E0,-3.742137194E0,-1.078348446E1,1.649604917E0,1.153292349E1
2.966125938E0,-3.928884983E0,-1.089122391E1,1.271321058E0,1.164779604E1
2.968125362E0,-3.950432777E0,-1.120486355E1,8.451532125E-1,1.191088453E1
2.970123285E0,-4.276044369E0,-1.148019695E1,1.460463107E-1,1.225156345E1
2.972122246E0,-4.546588898E0,-1.156638813E1,-2.825157940E-1,1.243111500E1
2.974276015E0,-4.927267075E0,-1.169567490E1,-1.254561663E0,1.275306618E1
2.976155708E0,-5.264849663E0,-1.179623222E1,-2.197877169E0,1.310344995E1
2.978150092E0,-5.422866821E0,-1.184650993E1,-2.710236311E0,1.330761673E1
2.980148938E0,-5.580883980E0,-1.184411621E1,-3.725377798E0,1.361278056E1
2.982146823E0,-5.382165432E0,-1.175074196E1,-4.589684486E0,1.371542362E1
2.984146015E0,-5.111620426E0,-1.168849277E1,-4.987122059E0,1.369747835E1
2.986143900E0,-4.359841347E0,-1.159751320E1,-5.691017628E0,1.363444941E1
2.988143246E0,-3.739742994E0,-1.158554173E1,-6.449979305E0,1.377725255E1
2.990140823E0,-3.339911461E0,-1.162863731E1,-6.856993675E0,1.390678168E1
2.992140015E0,-2.485181332E0,-1.180580902E1,-7.565677166E0,1.424053102E1
2.994155592E0,-1.635239720E0,-1.192312431E1,-7.941566944E0,1.441885529E1
2.996154823E0,-1.079784989E0,-1.214578533E1,-8.700529099E0,1.497949410E1
2.998152323E0,-3.040636182E-1,-1.214578533E1,-9.708487511E0,1.555208300E1
3.000151361E0,-3.351882473E-2,-1.198297977E1,-1.020169353E1,1.573745465E1
3.002148400E0,9.361328483E-1,-1.156159973E1,-1.106360626E1,1.602966988E1
3.004147284E0,2.063801765E0,-1.139879417E1,-1.184411621E1,1.656728328E1
3.006144746E0,2.533065319E0,-1.140118885E1,-1.227746677E1,1.694519748E1
3.008143708E0,3.469198227E0,-1.154484081E1,-1.297896767E1,1.771361870E1
3.010141400E0,4.400542736E0,-1.185608673E1,-1.343865395E1,1.845342756E1
3.012140284E0,4.879383087E0,-1.204044056E1,-1.360624790E1,1.881251100E1
3.014159208E0,5.875370979E0,-1.249533844E1,-1.374271774E1,1.948116418E1
3.016157823E0,6.744466305E0,-1.304121685E1,-1.384327412E1,2.017913281E1
3.018155361E0,7.184999466E0,-1.336682796E1,-1.382890892E1,2.053131825E1
3.020154131E0,8.008605003E0,-1.410663605E1,-1.370919895E1,2.123857506E1
3.022151784E0,8.762778282E0,-1.495897198E1,-1.353681660E1,2.199551157E1
3.024150669E0,9.038111687E0,-1.538514042E1,-1.348893261E1,2.236831043E1
3.026148092E0,9.442731857E0,-1.617283249E1,-1.350808620E1,2.309099583E1
3.028146977E0,9.658209801E0,-1.675222969E1,-1.346738434E1,2.356456359E1
3.030144323E0,9.677363396E0,-1.695094872E1,-1.340752983E1,2.368011573E1
3.032143054E0,9.653421402E0,-1.716642570E1,-1.319683933E1,2.370719900E1
3.034173707E0,9.653421402E0,-1.724543571E1,-1.291193008E1,2.360744663E1
3.036172784E0,9.658209801E0,-1.724064636E1,-1.274912453E1,2.351725068E1
3.038170284E0,9.560047150E0,-1.719515610E1,-1.243787766E1,2.327592523E1
3.040169169E0,9.196128845E0,-1.712811852E1,-1.222479343E1,2.296490375E1
3.042175054E0,8.983044624E0,-1.698207283E1,-1.212184334E1,2.271618309E1
3.044173823E0,8.439560890E0,-1.689348793E1,-1.184890461E1,2.229378081E1
3.046171130E0,8.118738174E0,-1.689588165E1,-1.165976238E1,2.207566047E1
3.048169977E0,7.460332394E0,-1.698686028E1,-1.121204662E1,2.167763758E1
3.050167515E0,6.761225700E0,-1.715206146E1,-1.076672459E1,2.135016964E1
3.052166361E0,6.399701118E0,-1.725979996E1,-1.054166985E1,2.121281858E1
3.054185092E0,5.635950565E0,-1.745372963E1,-1.008916569E1,2.093293771E1
3.056183823E0,4.807557106E0,-1.766202545E1,-9.658209801E0,2.069639497E1
3.058181246E0,4.371812344E0,-1.775300598E1,-9.433155060E0,2.057343868E1
3.060180053E0,3.471592426E0,-1.790384102E1,-8.966285706E0,2.032224782E1
3.062177477E0,2.578555346E0,-1.795651245E1,-8.523358345E0,2.004327629E1
3.064175938E0,2.147598982E0,-1.794454193E1,-8.298302650E0,1.988669388E1
3.066173400E0,1.285686255E0,-1.787750435E1,-7.864952564E0,1.957333977E1
3.068171900E0,4.261679053E-1,-1.773863983E1,-7.462726593E0,1.924924025E1
3.070169938E0,7.182605099E-3,-1.765244865E1,-7.280767441E0,1.909498808E1
3.072168900E0,-7.134721279E-1,-1.742499924E1,-6.955155849E0,1.877535176E1
3.074184784E0,-1.376665950E0,-1.718318558E1,-6.667851925E0,1.848289277E1
3.076183553E0,-1.699883223E0,-1.704192734E1,-6.550535679E0,1.833647753E1
3.078181015E0,-2.272097349E0,-1.672589302E1,-6.306327343E0,1.801909233E1
3.080179515E0,-2.750937700E0,-1.639070511E1,-6.076483727E0,1.769594662E1
3.082177092E0,-2.980781078E0,-1.620874596E1,-5.980715752E0,1.753218361E1
3.084176669E0,-3.418920040E0,-1.584961510E1,-5.779603004E0,1.721345764E1
3.086174361E0,-3.825934410E0,-1.549048519E1,-5.559336185E0,1.689671934E1
3.088173746E0,-4.017470360E0,-1.532528496E1,-5.449203014E0,1.675405147E1
3.090180592E0,-4.335899353E0,-1.499967384E1,-5.236119270E0,1.646836919E1
3.092180092E0,-4.608838081E0,-1.480095482E1,-4.977545261E0,1.628144984E1
3.094208169E0,-4.762067318E0,-1.444421864E1,-4.833893299E0,1.595867355E1
3.096207938E0,-5.044582844E0,-1.411142445E1,-4.501099110E0,1.564736429E1
3.098205899E0,-5.291185856E0,-1.397256088E1,-4.326322556E0,1.555461900E1
3.100205669E0,-5.473145008E0,-1.380736160E1,-3.948038578E0,1.536832975E1
3.102204130E0,-5.770026207E0,-1.376665974E1,-3.586514235E0,1.535178189E1
3.104203746E0,-5.849034786E0,-1.377384281E1,-3.416525841E0,1.534935186E1
3.106202784E0,-6.016628742E0,-1.381933212E1,-3.076549292E0,1.538307243E1
3.108202515E0,-6.133944988E0,-1.392467690E1,-2.774879694E0,1.546679880E1
3.110200553E0,-6.169857979E0,-1.396537876E1,-2.626439333E0,1.549184092E1
3.112200323E0,-6.246472359E0,-1.403481007E1,-2.425326347E0,1.555237983E1
3.114215784E0,-6.172252178E0,-1.384327412E1,-2.308010340E0,1.533166158E1
3.116215438E0,-6.136339188E0,-1.367089176E1,-2.262520552E0,1.515476623E1
3.118213938E0,-6.126761913E0,-1.338358784E1,-2.255337954E0,1.489107734E1
3.120213476E0,-6.169857979E0,-1.316810894E1,-2.367865562E0,1.473339838E1
3.122211899E0,-6.184223175E0,-1.308670616E1,-2.466027737E0,1.468290800E1
3.124212092E0,-6.217741966E0,-1.301488018E1,-2.729389906E0,1.467981575E1
3.126210207E0,-6.217741966E0,-1.301966858E1,-3.074155092E0,1.475203425E1
3.128209784E0,-6.189011574E0,-1.302685165E1,-3.296815634E0,1.479431383E1
3.130216630E0,-6.126761913E0,-1.299333286E1,-3.907337189E0,1.488728297E1
3.132216130E0,-6.102819920E0,-1.287841129E1,-4.592078686E0,1.497281119E1
3.134333707E0,-6.086060524E0,-1.279461384E1,-4.936843872E0,1.500382296E1
3.136239899E0,-5.992686749E0,-1.258392429E1,-5.602431774E0,1.502180704E1
3.138243707E0,-5.918466568E0,-1.235647488E1,-6.320692539E0,1.508846818E1
3.140243476E0,-5.889736176E0,-1.224394703E1,-6.665457726E0,1.513378861E1
3.142251015E0,-5.827486992E0,-1.206677628E1,-7.319074631E0,1.526877689E1
3.144251053E0,-5.741295815E0,-1.198776817E1,-7.845798969E0,1.543455943E1
3.146249861E0,-5.693411827E0,-1.195424938E1,-8.037335396E0,1.548927941E1
3.148249938E0,-5.552153587E0,-1.196621990E1,-8.267178535E0,1.556801430E1
3.150248361E0,-5.365406036E0,-1.197579670E1,-8.283937454E0,1.551872766E1
3.152248361E0,-5.267243862E0,-1.205480576E1,-8.221688271E0,1.551316724E1
3.154414976E0,-5.080495834E0,-1.214339066E1,-8.006210327E0,1.540690684E1
3.156284899E0,-4.872200489E0,-1.219366932E1,-7.860164165E0,1.530379331E1
3.158280284E0,-4.766855717E0,-1.227028370E1,-7.508216381E0,1.515440823E1
3.160280361E0,-4.556165695E0,-1.227986050E1,-7.158663273E0,1.492648919E1
3.162278976E0,-4.338293552E0,-1.225831223E1,-6.768408298E0,1.465941201E1
3.164285130E0,-4.216189384E0,-1.223437023E1,-6.550535679E0,1.450398516E1
3.166280399E0,-3.938461781E0,-1.213381386E1,-6.069301128E0,1.412718430E1
3.168279745E0,-3.790021181E0,-1.205719948E1,-5.793968201E0,1.390361059E1
3.170278092E0,-3.505111217E0,-1.186087513E1,-5.145139217E0,1.339547017E1
3.172277630E0,-3.224989653E0,-1.160948372E1,-4.434061527E0,1.283906430E1
3.174348207E0,-3.088520288E0,-1.147062016E1,-4.072536945E0,1.255785179E1
3.176336630E0,-2.868253708E0,-1.117852783E1,-3.351882458E0,1.201754883E1
3.178334668E0,-2.683900118E0,-1.086728191E1,-2.674323320E0,1.150882884E1
3.180334207E0,-2.592920542E0,-1.071405220E1,-2.353500366E0,1.127178404E1
3.182332130E0,-2.425326347E0,-1.040520096E1,-1.532289028E0,1.079343896E1
3.184331707E0,-2.224213362E0,-1.013704967E1,-6.847416759E-1,1.040075826E1
3.186329630E0,-2.138022184E0,-1.001015759E1,-2.609679997E-1,1.023926257E1
3.188329130E0,-1.898601890E0,-9.782708168E0,6.033388376E-1,9.983490672E0
3.190327591E0,-1.584961534E0,-9.674968719E0,1.496376038E0,9.917472664E0
3.192327130E0,-1.424550056E0,-9.662998199E0,1.929726601E0,9.956240346E0
3.194395130E0,-1.154005170E0,-9.773131371E0,2.753331900E0,1.021893641E1
3.196384014E0,-9.983820915E-1,-9.991003990E0,3.526659012E0,1.064209807E1
3.198382476E0,-1.005564690E0,-1.012747288E1,3.900154591E0,1.089899413E1
3.200382130E0,-1.120486379E0,-1.040759468E1,4.606443882E0,1.143646982E1
3.202380591E0,-1.374271750E0,-1.063504410E1,5.267243862E0,1.194724419E1
3.204380476E0,-1.539471745E0,-1.074038887E1,5.602431774E0,1.221119028E1
3.206378322E0,-1.884236693E0,-1.090558910E1,6.133944988E0,1.265335935E1
3.208378168E0,-2.205059767E0,-1.100853920E1,6.505045891E0,1.297558654E1
3.210376091E0,-2.346317768E0,-1.101811600E1,6.627150536E0,1.306993540E1
3.212375438E0,-2.521094322E0,-1.098699188E1,6.787561893E0,1.315830170E1
3.214575514E0,-2.580949545E0,-1.080742645E1,6.825869083E0,1.304048526E1
3.216392899E0,-2.576161146E0,-1.067095661E1,6.799532890E0,1.291276767E1
3.218387399E0,-2.501940727E0,-1.027351952E1,6.663063526E0,1.249805290E1
3.220386630E0,-2.437297344E0,-1.001494598E1,6.552929878E0,1.221394496E1
3.222384437E0,-2.293645144E0,-9.414001465E0,6.282385349E0,1.154783951E1
3.224384014E0,-2.109291792E0,-8.741230011E0,5.832275391E0,1.071791259E1
3.226381861E0,-1.982398987E0,-8.403648376E0,5.568912983E0,1.027443447E1
3.228381014E0,-1.704671621E0,-7.778761387E0,5.068524837E0,9.439543319E0
3.230418784E0,-1.438915253E0,-7.225700855E0,4.685452938E0,8.731248432E0
3.232402091E0,-1.314416766E0,-6.962338448E0,4.537012100E0,8.413461053E0
3.234418130E0,-1.084573388E0,-6.483498096E0,4.335899353E0,7.874774295E0
3.236417553E0,-8.427590132E-1,-6.011840343E0,4.247313976E0,7.408923207E0
3.238415668E0,-7.062895298E-1,-5.762843609E0,4.242525578E0,7.190843806E0
3.240415207E0,-4.213795066E-1,-5.240907669E0,4.290409565E0,6.786183620E0
3.242412784E0,-5.027823523E-2,-4.711789131E0,4.417302132E0,6.458795773E0
3.244412245E0,1.532289088E-1,-4.450820923E0,4.513070107E0,6.340432775E0
3.246410668E0,5.578489900E-1,-3.933673382E0,4.781220913E0,6.216514714E0
3.248410245E0,9.768342972E-1,-3.402160645E0,5.123591423E0,6.227366327E0
3.250408014E0,1.213860273E0,-3.145981073E0,5.327098846E0,6.304651917E0
3.252407784E0,1.678335428E0,-2.633621931E0,5.755661011E0,6.548313367E0
3.254480360E0,2.221819162E0,-2.121262789E0,6.291962147E0,7.001787191E0
3.256468745E0,2.528276920E0,-1.843535304E0,6.598419666E0,7.302735699E0
3.258466822E0,3.169923067E0,-1.278503656E0,7.275979042E0,8.038834174E0
3.260466360E0,3.629609823E0,-7.972691655E-1,7.994239330E0,8.815756806E0
3.262464476E0,3.821146011E0,-6.344634295E-1,8.384494781E0,9.235986868E0
3.264464207E0,4.266467571E0,-4.285621047E-1,9.306262016E0,1.024660547E1
3.266462130E0,4.599261284E0,-2.489969730E-1,1.027591324E1,1.126097672E1
3.268462053E0,4.718971729E0,-2.130839527E-1,1.080024433E1,1.178810318E1
3.270460168E0,4.905719280E0,-2.274491638E-1,1.185369301E1,1.283073859E1
3.272460014E0,5.037400246E0,-3.782838583E-1,1.289995861E1,1.385378764E1
3.274475822E0,5.020640850E0,-4.812345505E-1,1.329739666E1,1.422178537E1
3.276475745E0,4.991910458E0,-6.129156351E-1,1.402044487E1,1.489522440E1
3.278473783E0,5.288791656E0,-6.224924326E-1,1.440351772E1,1.535643633E1
3.280473476E0,5.489904404E0,-5.315127969E-1,1.527979565E1,1.624480567E1
3.282471553E0,5.937620163E0,-3.711012602E-1,1.631648445E1,1.736723105E1
3.284471476E0,6.117185116E0,-3.303998411E-1,1.684081459E1,1.792043956E1
3.286469822E0,6.385335922E0,-3.830722570E-1,1.787032127E1,1.898071763E1
3.288469937E0,6.627150536E0,-4.740519226E-1,1.906981659E1,2.019410197E1
3.290468206E0,6.715735912E0,-5.003881454E-1,1.970188522E1,2.082104172E1
3.292467899E0,6.806715488E0,-5.841852427E-1,2.095165825E1,2.203734629E1
3.294539591E0,6.703764915E0,-8.188169599E-1,2.225889397E1,2.326089607E1
3.296528130E0,6.610390663E0,-9.624691010E-1,2.292208672E1,2.387562923E1
3.298526399E0,6.335057735E0,-1.249773264E0,2.418383217E1,2.503103330E1
3.300525899E0,5.990292549E0,-1.517923832E0,2.518700218E1,2.593400811E1
3.302523899E0,5.844246387E0,-1.628057122E0,2.567781258E1,2.638476539E1
3.304523822E0,5.669469833E0,-1.745373011E0,2.658761024E1,2.724133318E1
3.306522553E0,5.446808815E0,-1.687912226E0,2.730587006E1,2.789493347E1
3.308521283E0,5.319916248E0,-1.575384736E0,2.757402039E1,2.812667677E1
3.310518822E0,4.929661274E0,-1.161187768E0,2.785653687E1,2.831318709E1
3.312518706E0,4.501099110E0,-6.129156351E-1,2.796906471E1,2.833556316E1
3.314584976E0,4.271255970E0,-3.495534360E-1,2.783738327E1,2.816532838E1
3.316573476E0,3.818751812E0,3.064578176E-1,2.724601555E1,2.751403542E1
3.318571629E0,3.450044632E0,1.180341482E0,2.641283226E1,2.666334041E1
3.320570822E0,3.265691042E0,1.675941229E0,2.592441559E1,2.618298762E1
3.322611668E0,2.906560898E0,2.767697096E0,2.497391701E1,2.529436250E1
3.324611014E0,2.564189911E0,3.962403774E0,2.413115883E1,2.458838222E1
3.326608322E0,2.377442360E0,4.553771496E0,2.379836464E1,2.434648284E1
3.328608052E0,2.006340981E0,5.659893036E0,2.339374542E1,2.415216591E1
3.330605476E0,1.726219416E0,6.639121532E0,2.341768646E1,2.440175829E1
3.332604706E0,1.649604917E0,7.098807812E0,2.356852150E1,2.466960629E1
3.334633245E0,1.656787634E0,7.860164165E0,2.410961151E1,2.541260501E1
3.336632976E0,1.881842494E0,8.401253700E0,2.489251518E1,2.633931865E1
3.338631091E0,2.078166962E0,8.631096840E0,2.534023094E1,2.685036154E1
3.340630937E0,2.707842112E0,9.030928612E0,2.637452507E1,2.800902807E1
3.342629322E0,3.703830004E0,9.390059471E0,2.742797470E1,2.922644983E1
3.344629014E0,4.316745758E0,9.569623947E0,2.793554497E1,2.984303384E1
3.346627168E0,5.671864033E0,9.931148529E0,2.882858276E1,3.101426989E1
3.348626783E0,6.394912720E0,1.007480049E1,2.922123146E1,3.156385404E1
3.350624706E0,7.273584843E0,1.022084713E1,2.965458298E1,3.219883607E1
3.352624168E0,8.592789650E0,1.022802925E1,3.023876762E1,3.305800484E1
3.354691783E0,1.122162342E1,1.047942066E1,3.066972351E1,3.429832401E1
3.356680475E0,1.261026001E1,1.150174522E1,3.165134621E1,3.595992933E1
3.358678437E0,1.475307083E1,1.216733265E1,3.274070740E1,3.791636854E1
