"Time (s)","Gyroscope x (rad/s)","Gyroscope y (rad/s)","Gyroscope z (rad/s)","Absolute (rad/s)"
7.650383000E-3,-2.321287990E-2,-9.101892263E-2,-1.954768747E-1,2.168743660E-1
9.650998000E-3,-2.321287990E-2,-9.101892263E-2,-1.954768747E-1,2.168743660E-1
1.164961400E-2,-2.321287990E-2,-9.101892263E-2,-1.954768747E-1,2.168743660E-1
1.365034400E-2,-2.321287990E-2,-9.101892263E-2,-1.954768747E-1,2.168743660E-1
1.564953700E-2,-2.321287990E-2,-9.101892263E-2,-1.954768747E-1,2.168743660E-1
1.764988300E-2,-2.321287990E-2,-9.101892263E-2,-1.954768747E-1,2.168743660E-1
1.964853700E-2,-2.321287990E-2,-9.101892263E-2,-1.954768747E-1,2.168743660E-1
2.164857500E-2,-2.321287990E-2,-9.101892263E-2,-1.954768747E-1,2.168743660E-1
2.364765200E-2,-2.321287990E-2,-9.101892263E-2,-1.954768747E-1,2.168743660E-1
2.566784400E-2,-2.321287990E-2,-9.101892263E-2,-1.954768747E-1,2.168743660E-1
2.766361400E-2,-2.321287990E-2,-9.101892263E-2,-1.954768747E-1,2.168743660E-1
2.966361400E-2,-2.321287990E-2,-9.101892263E-2,-1.954768747E-1,2.168743660E-1
3.166249800E-2,-2.321287990E-2,-9.101892263E-2,-1.954768747E-1,2.168743660E-1
3.366253700E-2,-2.321287990E-2,-9.101892263E-2,-1.954768747E-1,2.168743660E-1
3.566111400E-2,-2.321287990E-2,-9.101892263E-2,-1.954768747E-1,2.168743660E-1
3.766149800E-2,-2.321287990E-2,-9.101892263E-2,-1.954768747E-1,2.168743660E-1
3.966034400E-2,-2.321287990E-2,-9.101892263E-2,-1.954768747E-1,2.168743660E-1
4.166076700E-2,-2.321287990E-2,-9.101892263E-2,-1.954768747E-1,2.168743660E-1
4.365969000E-2,-2.321287990E-2,-9.101892263E-2,-1.954768747E-1,2.168743660E-1
4.567684400E-2,-2.321287990E-2,-9.101892263E-2,-1.954768747E-1,2.168743660E-1
4.767319000E-2,-2.321287990E-2,-9.101892263E-2,-1.954768747E-1,2.168743660E-1
4.967322900E-2,-2.321287990E-2,-9.101892263E-2,-1.954768747E-1,2.168743660E-1
5.167865200E-2,-2.321287990E-2,-9.101892263E-2,-1.954768747E-1,2.168743660E-1
5.371984400E-2,-2.321287990E-2,-9.101892263E-2,-1.954768747E-1,2.168743660E-1
5.571530600E-2,-2.321287990E-2,-9.101892263E-2,-1.954768747E-1,2.168743660E-1
5.771515200E-2,-2.321287990E-2,-9.101892263E-2,-1.954768747E-1,2.168743660E-1
5.972130600E-2,-2.321287990E-2,-9.101892263E-2,-1.954768747E-1,2.168743660E-1
6.172149800E-2,-2.321287990E-2,-9.101892263E-2,-1.954768747E-1,2.168743660E-1
6.372003700E-2,-2.321287990E-2,-9.101892263E-2,-1.954768747E-1,2.168743660E-1
6.575492100E-2,-2.321287990E-2,-9.101892263E-2,-1.954768747E-1,2.168743660E-1
6.775069000E-2,-2.321287990E-2,-9.101892263E-2,-1.954768747E-1,2.168743660E-1
6.975061300E-2,-2.321287990E-2,-9.101892263E-2,-1.954768747E-1,2.168743660E-1
7.174949800E-2,-2.229658216E-1,-1.280373573E0,-4.636467099E-1,1.379869021E0
7.374972900E-2,-1.740965992E-1,-1.243721604E0,-4.850270152E-1,1.346255645E0
7.574849800E-2,-8.735372871E-2,-1.183856845E0,-5.271766782E-1,1.298869875E0
7.774849800E-2,-1.160643995E-2,-1.136820197E0,-5.748242140E-1,1.273937890E0
7.974680600E-2,2.321287990E-2,-1.120326877E0,-5.980370641E-1,1.270165138E0
8.174680600E-2,8.063421398E-2,-1.097724795E0,-6.426302195E-1,1.274549019E0
8.374546000E-2,1.246165112E-1,-1.087340117E0,-6.945537925E-1,1.296241789E0
8.576207500E-2,1.386664063E-1,-1.086729288E0,-7.250970602E-1,1.313763550E0
8.775776700E-2,1.588249654E-1,-1.089783549E0,-7.794640660E-1,1.349228589E0
8.975730600E-2,1.618792862E-1,-1.093448758E0,-8.216137290E-1,1.377274196E0
9.175576700E-2,1.539380401E-1,-1.093448758E0,-8.362745047E-1,1.385165028E0
9.375538300E-2,1.282816976E-1,-1.099557400E0,-8.710938692E-1,1.408647294E0
9.575388300E-2,8.368854225E-2,-1.116050839E0,-9.053022861E-1,1.439494869E0
9.775369000E-2,5.558873713E-2,-1.134376764E0,-9.248499870E-1,1.464666600E0
9.975188300E-2,-1.221730467E-2,-1.186911225E0,-9.847147465E-1,1.542261538E0
1.017519980E-1,-8.735372871E-2,-1.263880134E0,-1.053131700E0,1.647455627E0
1.037505750E-1,-1.325577646E-1,-1.305419087E0,-1.076955438E0,1.697505101E0
1.057694590E-1,-2.254092693E-1,-1.403157473E0,-1.102000952E0,1.798351003E0
1.077741130E-1,-3.286454976E-1,-1.515556693E0,-1.114218235E0,1.909555505E0
1.097743830E-1,-3.799581826E-1,-1.586417079E0,-1.120937705E0,1.979289950E0
1.117730750E-1,-4.880813360E-1,-1.743409395E0,-1.116050839E0,2.126797871E0
1.137732670E-1,-5.980370641E-1,-1.928501606E0,-1.102611780E0,2.300547655E0
1.157721520E-1,-6.493497491E-1,-2.032959461E0,-1.099557400E0,2.400751079E0
1.177725750E-1,-7.489207983E-1,-2.266309977E0,-1.083064079E0,2.621082042E0
1.197716900E-1,-7.929030657E-1,-2.390315771E0,-1.069625020E0,2.736129098E0
1.217718440E-1,-8.741481900E-1,-2.657874584E0,-1.040303469E0,2.985073478E0
1.237699210E-1,-9.401215911E-1,-2.927877188E0,-1.015868902E0,3.238561881E0
1.258016130E-1,-9.755517840E-1,-3.052493572E0,-1.001819015E0,3.357537733E0
1.277969980E-1,-1.023810148E0,-3.309667826E0,-9.633345008E-1,3.595845060E0
1.297967290E-1,-1.064738154E0,-3.540575027E0,-9.279043078E-1,3.811868999E0
1.317949590E-1,-1.081842303E0,-3.644422054E0,-9.169087410E-1,3.910615875E0
1.337951900E-1,-1.103222609E0,-3.824627399E0,-9.028588533E-1,4.081669876E0
1.357943060E-1,-1.100779176E0,-3.981619596E0,-8.698720932E-1,4.221573979E0
1.377945750E-1,-1.089783549E0,-4.048203945E0,-8.460483551E-1,4.276842432E0
1.397931900E-1,-1.067181587E0,-4.153883457E0,-8.100073338E-1,4.364600348E0
1.417928820E-1,-1.043357849E0,-4.235128880E0,-8.100073338E-1,4.436330027E0
1.437913050E-1,-1.022588372E0,-4.251622200E0,-8.130616546E-1,4.447813796E0
1.458118820E-1,-9.651671052E-1,-4.246735096E0,-8.087855577E-1,4.429496653E0
1.478075360E-1,-8.900306821E-1,-4.197865963E0,-7.910705209E-1,4.363487805E0
1.498074210E-1,-8.436049223E-1,-4.161213875E0,-7.831292152E-1,4.317483242E0
1.518057290E-1,-7.495316267E-1,-4.049425602E0,-7.666358948E-1,4.188958816E0
1.538061520E-1,-6.414085031E-1,-3.908315897E0,-7.550294399E-1,4.031923545E0
1.558118440E-1,-5.827654600E-1,-3.827681541E0,-7.483099103E-1,3.943441300E0
1.578116520E-1,-4.660901725E-1,-3.649919748E0,-7.422012687E-1,3.753667132E0
1.598101900E-1,-3.445279896E-1,-3.457497358E0,-7.470881939E-1,3.554029866E0
1.618107280E-1,-2.846632004E-1,-3.359758854E0,-7.580837607E-1,3.455966389E0
1.638098050E-1,-1.551597714E-1,-3.156951666E0,-7.861835957E-1,3.257069699E0
1.658274980E-1,-2.871066704E-2,-2.956587791E0,-8.228355050E-1,3.069086825E0
1.678233440E-1,3.359758854E-2,-2.855184078E0,-8.460483551E-1,2.978087094E0
1.698233050E-1,1.545489132E-1,-2.652987719E0,-8.943067193E-1,2.803928264E0
1.718221900E-1,2.700024247E-1,-2.453234911E0,-9.474520087E-1,2.643658099E0
1.738217670E-1,3.231477141E-1,-2.349387646E0,-9.773843884E-1,2.565019883E0
1.758202670E-1,4.251621962E-1,-2.158797741E0,-1.038470864E0,2.433021232E0
1.778203440E-1,4.715879560E-1,-2.069000483E0,-1.069014192E0,2.376120691E0
1.798184590E-1,5.558874011E-1,-1.886962771E0,-1.135598540E0,2.271392381E0
1.818186900E-1,6.243042946E-1,-1.709811807E0,-1.204626322E0,2.182736091E0
1.838170360E-1,6.548475623E-1,-1.626123309E0,-1.237612963E0,2.145877022E0
1.858508440E-1,7.024950385E-1,-1.464854836E0,-1.301142931E0,2.081411035E0
1.878464590E-1,7.415903807E-1,-1.318858027E0,-1.359786034E0,2.034296155E0
1.898461900E-1,7.525860071E-1,-1.246775985E0,-1.386053205E0,2.010467493E0
1.918447280E-1,7.727445364E-1,-1.122770309E0,-1.431257248E0,1.976422171E0
1.938447670E-1,7.922922373E-1,-1.023810148E0,-1.466076612E0,1.955836098E0
1.958434980E-1,7.996225953E-1,-9.908234477E-1,-1.474017859E0,1.947782341E0
1.978436130E-1,8.081747293E-1,-9.456194043E-1,-1.485624313E0,1.937633105E0
1.998418440E-1,8.124507666E-1,-9.224064946E-1,-1.490511179E0,1.931976595E0
2.018419980E-1,8.081747293E-1,-9.156870246E-1,-1.491122007E0,1.927452713E0
2.038468440E-1,8.020660877E-1,-9.169087410E-1,-1.493565559E0,1.927373791E0
2.058642670E-1,7.935139537E-1,-9.279043078E-1,-1.496619821E0,1.931461024E0
2.078597670E-1,7.892379165E-1,-9.419541955E-1,-1.497841597E0,1.937447714E0
2.098602670E-1,7.733554244E-1,-9.749409556E-1,-1.496008992E0,1.945926870E0
2.118589980E-1,7.556403279E-1,-1.008538485E0,-1.494176388E0,1.954662441E0
2.139001130E-1,7.483099103E-1,-1.029918790E0,-1.492954612E0,1.962043299E0
2.158963820E-1,7.244861722E-1,-1.065959811E0,-1.490511179E0,1.970475604E0
2.178964980E-1,6.927211881E-1,-1.105666041E0,-1.477072120E0,1.970812545E0
2.198952670E-1,6.792821288E-1,-1.126435518E0,-1.467909217E0,1.971050140E0
2.218956130E-1,6.450737119E-1,-1.161254883E0,-1.445307136E0,1.963045010E0
2.238942670E-1,5.968153477E-1,-1.191187263E0,-1.411709547E0,1.941143864E0
2.259173820E-1,5.711590052E-1,-1.207069755E0,-1.389718413E0,1.927318674E0
2.279130740E-1,5.131267905E-1,-1.231504321E0,-1.342070937E0,1.892367934E0
2.299129590E-1,4.508185387E-1,-1.255328059E0,-1.287703991E0,1.853986909E0
2.319111900E-1,4.208861589E-1,-1.267545342E0,-1.260215044E0,1.836289278E0
2.339111900E-1,3.494149148E-1,-1.279762745E0,-1.199739337E0,1.788646959E0
2.359100360E-1,3.127630055E-1,-1.280984402E0,-1.169806957E0,1.762722341E0
2.379102280E-1,2.400700450E-1,-1.278540969E0,-1.106887817E0,1.708069459E0
2.399092670E-1,1.612684280E-1,-1.262658477E0,-1.043357849E0,1.645876525E0
2.419096130E-1,1.233947799E-1,-1.254106402E0,-1.009760261E0,1.614814207E0
2.439083820E-1,4.642575979E-2,-1.227228284E0,-9.431759119E-1,1.548491334E0
2.459406510E-1,-2.687807009E-2,-1.201571941E0,-8.778133392E-1,1.488305688E0
2.479360740E-1,-6.352998316E-2,-1.188743711E0,-8.436049223E-1,1.459046584E0
2.499358050E-1,-1.325577646E-1,-1.171028733E0,-7.880161405E-1,1.417691537E0
2.519415740E-1,-1.905899495E-1,-1.163698316E0,-7.354817390E-1,1.389766774E0
2.539415360E-1,-2.174680233E-1,-1.165530920E0,-7.122688890E-1,1.383141944E0
2.559397280E-1,-2.651155293E-1,-1.174082994E0,-6.688974500E-1,1.377018853E0
2.579396900E-1,-2.981022298E-1,-1.186300278E0,-6.304129362E-1,1.376079125E0
2.599382670E-1,-3.097086847E-1,-1.192408919E0,-6.126978397E-1,1.375920471E0
2.619386130E-1,-3.188716471E-1,-1.206458807E0,-5.815436840E-1,1.376740730E0
2.639370360E-1,-3.145956099E-1,-1.219287038E0,-5.503895879E-1,1.374248877E0
2.659556130E-1,-3.060434759E-1,-1.222952247E0,-5.363397002E-1,1.370012803E0
2.679510360E-1,-2.773328125E-1,-1.230282545E0,-5.112941861E-1,1.360856486E0
2.699508430E-1,-2.376265824E-1,-1.236391306E0,-4.905247986E-1,1.351201107E0
2.719493050E-1,-2.150245607E-1,-1.238223910E0,-4.770857692E-1,1.344263681E0
2.739496130E-1,-1.588249654E-1,-1.236391306E0,-4.605923891E-1,1.328922187E0
2.759488430E-1,-9.957103431E-2,-1.227228284E0,-4.459316432E-1,1.309526129E0
2.779486130E-1,-6.719517708E-2,-1.216232657E0,-4.416555762E-1,1.295683880E0
2.799474590E-1,-3.054326167E-3,-1.189354658E0,-4.324925840E-1,1.265552712E0
2.819473820E-1,5.681046844E-2,-1.144761443E0,-4.269948006E-1,1.223123359E0
2.839463430E-1,8.857546002E-2,-1.114829063E0,-4.276056588E-1,1.197303659E0
2.859733050E-1,1.392772794E-1,-1.050077319E0,-4.269948006E-1,1.142096798E0
2.879694590E-1,1.838704348E-1,-9.676105380E-1,-4.276056588E-1,1.073743493E0
2.899703050E-1,2.040289938E-1,-9.230173826E-1,-4.288274050E-1,1.038018238E0
2.919690360E-1,2.394591719E-1,-8.344419003E-1,-4.294382632E-1,9.685304341E-1
2.939702280E-1,2.559525371E-1,-7.892379165E-1,-4.294382632E-1,9.342512574E-1
2.959692280E-1,2.828305960E-1,-7.024950385E-1,-4.337143302E-1,8.726972816E-1
2.979696510E-1,3.017674387E-1,-6.285803318E-1,-4.379903674E-1,8.234150730E-1
2.999763050E-1,3.109304011E-1,-5.974262357E-1,-4.398229718E-1,8.043880083E-1
3.019766890E-1,3.243694305E-1,-5.540547967E-1,-4.465425014E-1,7.820437653E-1
3.039762280E-1,3.396410644E-1,-5.259549618E-1,-4.557054639E-1,7.743720968E-1
3.059723430E-1,3.451388776E-1,-5.198463202E-1,-4.605923891E-1,7.755684305E-1
3.079687280E-1,3.579670191E-1,-5.253441334E-1,-4.715879560E-1,7.915314557E-1
3.099694970E-1,3.720169365E-1,-5.485569835E-1,-4.844161272E-1,8.209569718E-1
3.119683820E-1,3.817907870E-1,-5.662720799E-1,-4.917465150E-1,8.415716895E-1
3.139688430E-1,4.013384581E-1,-6.065891981E-1,-5.057964325E-1,8.859193216E-1
3.159677660E-1,4.208861589E-1,-6.579018831E-1,-5.210680366E-1,9.388780247E-1
3.179683050E-1,4.294382632E-1,-6.853908300E-1,-5.277875662E-1,9.657833747E-1
3.199676510E-1,4.483750761E-1,-7.415903807E-1,-5.345070958E-1,1.018181878E0
3.219680360E-1,4.642575979E-1,-8.020660877E-1,-5.400048494E-1,1.072590492E0
3.239674970E-1,4.715879560E-1,-8.301658630E-1,-5.418374538E-1,1.097797061E0
3.259969970E-1,4.770857692E-1,-8.863654733E-1,-5.412266254E-1,1.142882690E0
3.279926120E-1,4.776966274E-1,-9.370672703E-1,-5.283984542E-1,1.177070118E0
3.299927660E-1,4.740314186E-1,-9.596692920E-1,-5.186246037E-1,1.189387412E0
3.319915740E-1,4.667010605E-1,-1.006705880E0,-4.960225821E-1,1.215444368E0
3.339922280E-1,4.495968223E-1,-1.048244715E0,-4.728097022E-1,1.234707779E0
3.359909200E-1,4.447098970E-1,-1.071457624E0,-4.569272101E-1,1.246824289E0
3.379909590E-1,4.202753007E-1,-1.105055213E0,-4.294382632E-1,1.257853558E0
3.399893430E-1,3.940080702E-1,-1.133154988E0,-3.958406746E-1,1.263318023E0
3.419893820E-1,3.707951903E-1,-1.142318010E0,-3.805690408E-1,1.259846143E0
3.439878820E-1,3.408628106E-1,-1.151481032E0,-3.506366611E-1,1.251016423E0
3.460073050E-1,3.182607889E-1,-1.150259256E0,-3.378084898E-1,1.240363198E0
3.480019200E-1,2.767219543E-1,-1.136209369E0,-3.152064681E-1,1.211157251E0
3.500019970E-1,2.162462920E-1,-1.097724795E0,-2.968805134E-1,1.157540593E0
3.520007280E-1,1.918116808E-1,-1.071457624E0,-2.840523422E-1,1.124943952E0
3.540006120E-1,1.233947799E-1,-1.010371089E0,-2.590068579E-1,1.050314506E0
3.559988050E-1,5.558873713E-2,-9.468411207E-1,-2.419026345E-1,9.788335406E-1
3.579986510E-1,1.404990070E-2,-9.175195694E-1,-2.370157093E-1,9.477425845E-1
3.599964590E-1,-6.658431143E-2,-8.949176073E-1,-2.467895597E-1,9.307073016E-1
3.619965740E-1,-1.447750628E-1,-8.698720932E-1,-2.528982162E-1,9.173847530E-1
3.639950350E-1,-1.869247705E-1,-8.491026759E-1,-2.565633953E-1,9.064993105E-1
3.660250740E-1,-2.590068579E-1,-7.977899909E-1,-2.571742535E-1,8.773209325E-1
3.680203050E-1,-3.292563558E-1,-7.519751191E-1,-2.638937831E-1,8.622738871E-1
3.700201120E-1,-3.488040566E-1,-7.330383062E-1,-2.657263875E-1,8.541779331E-1
3.720184970E-1,-4.135557711E-1,-6.725626588E-1,-2.712241709E-1,8.348242071E-1
3.740582280E-1,-4.721988440E-1,-6.047565937E-1,-2.748893499E-1,8.150254233E-1
3.760533430E-1,-4.972442985E-1,-5.711590052E-1,-2.767219543E-1,8.062564986E-1
3.780532280E-1,-5.564982295E-1,-4.960225821E-1,-2.797762752E-1,7.962433331E-1
3.800514970E-1,-6.243042946E-1,-4.111123085E-1,-2.840523422E-1,7.996592496E-1
3.820514580E-1,-6.560692787E-1,-3.683517575E-1,-2.840523422E-1,8.042360654E-1
3.840497660E-1,-7.195992470E-1,-2.889392674E-1,-2.773328125E-1,8.235426312E-1
3.860701120E-1,-7.220427394E-1,-3.469714522E-1,-2.645046413E-1,8.436217230E-1
3.880653430E-1,-6.750060916E-1,-4.844161272E-1,-2.528982162E-1,8.684755125E-1
3.900650350E-1,-5.681046844E-1,-8.246681094E-1,-2.284636050E-1,1.027139738E0
3.920629580E-1,-5.033529401E-1,-1.074512005E0,-2.138028294E-1,1.205674865E0
3.940624580E-1,-4.721988440E-1,-1.171028733E0,-2.040289938E-1,1.279026142E0
3.960678810E-1,-3.976732790E-1,-1.395216227E0,-1.576032341E-1,1.459318723E0
3.980673430E-1,-3.158173263E-1,-1.632842779E0,-9.101892263E-2,1.665593158E0
4.000656890E-1,-2.785545588E-1,-1.734857321E0,-5.314527452E-2,1.757881391E0
4.020653810E-1,-2.327396572E-1,-1.886962771E0,3.359758854E-2,1.901558584E0
4.040636510E-1,-2.089159191E-1,-1.982257724E0,1.368338168E-1,1.997927686E0
4.060796890E-1,-1.997529417E-1,-2.021964073E0,1.942551434E-1,2.041072025E0
4.080747280E-1,-1.899790913E-1,-2.095267773E0,3.353650272E-1,2.130424558E0
4.100749200E-1,-1.930334121E-1,-2.154521704E0,4.111123085E-1,2.201871704E0
4.120736510E-1,-1.979203373E-1,-2.219273329E0,5.186246037E-1,2.287644651E0
4.140736510E-1,-2.058615834E-1,-2.238821030E0,5.760459304E-1,2.320889379E0
4.160726120E-1,-2.186897546E-1,-2.237599373E0,5.907067060E-1,2.324566750E0
4.180728430E-1,-2.461786866E-1,-2.219273329E0,6.102544069E-1,2.314776122E0
4.200719580E-1,-2.797762752E-1,-2.189341068E0,6.114761233E-1,2.290282106E0
4.220718810E-1,-2.981022298E-1,-2.171015024E0,6.004805565E-1,2.272168144E0
4.240709580E-1,-3.414736688E-1,-2.139250040E0,5.821545720E-1,2.243189458E0
4.261055740E-1,-3.793473244E-1,-2.118480682E0,5.852088928E-1,2.230321556E0
4.281019580E-1,-4.037819207E-1,-2.119091511E0,6.004805565E-1,2.239233255E0
4.301023810E-1,-4.214970171E-1,-2.153300047E0,6.499606371E-1,2.288407669E0
4.321014200E-1,-4.227187634E-1,-2.196060658E0,7.031059265E-1,2.344297658E0
4.341018430E-1,-4.233296216E-1,-2.216830015E0,7.202101350E-1,2.369017924E0
4.361012660E-1,-4.178318381E-1,-2.249205828E0,7.507534027E-1,2.407725269E0
4.381015740E-1,-4.141666293E-1,-2.265699148E0,7.672467232E-1,2.427672581E0
4.401002660E-1,-4.068362415E-1,-2.267531872E0,7.788531780E-1,2.431836506E0
4.421001890E-1,-3.891211748E-1,-2.262644768E0,8.167268038E-1,2.436805143E0
4.441047270E-1,-3.585779071E-1,-2.228436470E0,8.472700715E-1,2.410886515E0
4.461221120E-1,-3.396410644E-1,-2.188730240E0,8.558222055E-1,2.374516322E0
4.481177270E-1,-2.950479090E-1,-2.090380907E0,8.600982428E-1,2.279586496E0
4.501178430E-1,-2.522873580E-1,-1.959655762E0,8.527678847E-1,2.152002017E0
4.521170740E-1,-2.327396572E-1,-1.881464958E0,8.417723179E-1,2.074285123E0
4.541175350E-1,-2.101376504E-1,-1.715920448E0,8.185594082E-1,1.912741572E0
4.561162660E-1,-2.009746730E-1,-1.626123309E0,8.038986921E-1,1.825081078E0
4.581166120E-1,-1.832595766E-1,-1.453248382E0,7.867944241E-1,1.662696724E0
4.601156120E-1,-1.692096740E-1,-1.288314819E0,7.751879692E-1,1.513044406E0
4.621156120E-1,-1.612684280E-1,-1.205237150E0,7.709119320E-1,1.439760154E0
4.641139970E-1,-1.301143020E-1,-1.056796908E0,7.727445364E-1,1.315630478E0
4.661344970E-1,-1.020144969E-1,-9.101892114E-1,7.684684992E-1,1.195573165E0
4.681308430E-1,-8.979719132E-2,-8.338310719E-1,7.611380816E-1,1.132549765E0
4.701312270E-1,-6.902777404E-2,-6.927211881E-1,7.452555895E-1,1.019820264E0
4.721302660E-1,-5.253441259E-2,-5.723807216E-1,7.214318514E-1,9.224117687E-1
4.741304200E-1,-4.948008433E-2,-5.192354321E-1,7.122688890E-1,8.828253977E-1
4.761288430E-1,-4.764748737E-2,-4.276056588E-1,6.921103001E-1,8.149438937E-1
4.781284970E-1,-5.742133409E-2,-3.506366611E-1,6.640105247E-1,7.530957805E-1
4.801269580E-1,-7.024950534E-2,-3.188716471E-1,6.524040699E-1,7.295513627E-1
4.821271890E-1,-1.014036313E-1,-2.663372457E-1,6.340781450E-1,6.951786237E-1
4.841261120E-1,-1.423316002E-1,-2.437352389E-1,6.236934066E-1,6.845864566E-1
4.861592660E-1,-1.643227488E-1,-2.486221492E-1,6.206390858E-1,6.884822537E-1
4.881548810E-1,-2.186897546E-1,-2.748893499E-1,6.273586154E-1,7.190050040E-1
4.901549200E-1,-2.834414840E-1,-3.292563558E-1,6.517932415E-1,7.833155509E-1
4.921600350E-1,-3.176499307E-1,-3.659082949E-1,6.670648456E-1,8.244791489E-1
4.941602660E-1,-3.982841372E-1,-4.538728893E-1,7.031059265E-1,9.268164853E-1
4.961590730E-1,-4.917465150E-1,-5.632177591E-1,7.452555895E-1,1.055667927E0
4.981594580E-1,-5.332853794E-1,-6.126978397E-1,7.635815740E-1,1.114831269E0
5.001583430E-1,-6.169738770E-1,-7.299839854E-1,8.081747293E-1,1.251670794E0
5.021586890E-1,-7.067710757E-1,-8.436049223E-1,8.680394888E-1,1.401672991E0
5.041577270E-1,-7.513642311E-1,-9.004153609E-1,9.016370773E-1,1.479271932E0
5.061768430E-1,-8.307767510E-1,-1.007316828E0,9.676105380E-1,1.625160717E0
5.081725730E-1,-9.175195694E-1,-1.109331250E0,1.056796908E0,1.785854890E0
5.101726500E-1,-9.615018964E-1,-1.156367898E0,1.098946571E0,1.862620782E0
5.121716120E-1,-1.010371089E0,-1.211956620E0,1.184467673E0,1.972980551E0
5.141716890E-1,-1.031751394E0,-1.238223910E0,1.230282545E0,2.027635207E0
5.161710730E-1,-1.080009699E0,-1.259604096E0,1.333518863E0,2.128684097E0
5.181713040E-1,-1.111774802E0,-1.247997642E0,1.432479024E0,2.201258158E0
5.201701890E-1,-1.138652802E0,-1.229671717E0,1.489289522E0,2.242009370E0
5.221704190E-1,-1.169806957E0,-1.220508814E0,1.600466967E0,2.328000127E0
5.241693040E-1,-1.211345792E0,-1.243721604E0,1.702481389E0,2.431593086E0
5.261864960E-1,-1.229671717E0,-1.257160664E0,1.752572417E0,2.482751607E0
5.281819190E-1,-1.282206178E0,-1.274875760E0,1.846645594E0,2.584465290E0
5.301822270E-1,-1.334129691E0,-1.301753879E0,1.940108061E0,2.690443176E0
5.321810350E-1,-1.361618638E0,-1.331075311E0,1.984701157E0,2.750419146E0
5.342220350E-1,-1.412931323E0,-1.388496757E0,2.075720072E0,2.869305139E0
5.362173810E-1,-1.466076612E0,-1.445918083E0,2.160019398E0,2.984249242E0
5.382178420E-1,-1.492954612E0,-1.474628687E0,2.201558352E0,3.041430981E0
5.402239960E-1,-1.552819490E0,-1.522887111E0,2.280970812E0,3.151707690E0
5.422240730E-1,-1.607186437E0,-1.441031098E0,2.351831198E0,3.192292100E0
5.442229580E-1,-1.635286212E0,-1.390329242E0,2.390315771E0,3.212597996E0
5.462585350E-1,-1.662164330E0,-1.222952247E0,2.461786985E0,3.212288533E0
5.482540350E-1,-1.689653277E0,-1.026864529E0,2.547307968E0,3.224617317E0
5.502539190E-1,-1.707368374E0,-9.621127844E-1,2.573575258E0,3.234819529E0
5.522522270E-1,-1.729359508E0,-8.081747293E-1,2.607172966E0,3.231281723E0
5.542520350E-1,-1.764178872E0,-6.078109145E-1,2.629163980E0,3.224013715E0
5.562503810E-1,-1.779450417E0,-5.033529401E-1,2.640770435E0,3.223891509E0
5.582503040E-1,-1.794111252E0,-2.987131178E-1,2.666426897E0,3.227676735E0
5.602486890E-1,-1.812437177E0,-1.643227488E-1,2.682920218E0,3.241911686E0
5.622481120E-1,-1.827097893E0,-1.130100712E-1,2.684752703E0,3.249454579E0
5.642461120E-1,-1.860084653E0,-3.115412779E-2,2.688417912E0,3.269323533E0
5.662630350E-1,-1.908343077E0,-1.832595794E-3,2.687807083E0,3.296374307E0
5.682584960E-1,-1.937053680E0,7.330383174E-3,2.683531046E0,3.309617738E0
5.702582270E-1,-2.003027201E0,-2.138028294E-2,2.682920218E0,3.348228782E0
5.722568420E-1,-2.037846565E0,-5.619960278E-2,2.684752703E0,3.371034573E0
5.742568040E-1,-2.128865480E0,-1.594358236E-1,2.690861464E0,3.434854208E0
5.762554580E-1,-2.252871037E0,-3.182607889E-1,2.691472292E0,3.524307157E0
5.782551500E-1,-2.318844557E0,-3.970624208E-1,2.697580814E0,3.579335259E0
5.802538040E-1,-2.475225925E0,-6.493497491E-1,2.723237276E0,3.736899750E0
5.822539190E-1,-2.657263756E0,-9.230173826E-1,2.770884752E0,3.948520491E0
5.842521880E-1,-2.757445812E0,-1.058629513E0,2.802649736E0,4.071737884E0
5.862721110E-1,-2.966361523E0,-1.374446750E0,2.874731779E0,4.353445458E0
5.882679580E-1,-3.191159964E0,-1.682322860E0,2.964529037E0,4.669276660E0
5.902682270E-1,-3.301726580E0,-1.827097893E0,3.016452551E0,4.831011396E0
5.922669580E-1,-3.543629169E0,-2.121535063E0,3.117856264E0,5.174866800E0
5.942670730E-1,-3.795916557E0,-2.431854486E0,3.203377247E0,5.530327706E0
5.962658040E-1,-3.921754837E0,-2.561357975E0,3.238807440E0,5.694786151E0
5.982657270E-1,-4.193589687E0,-2.762943506E0,3.342654705E0,6.032693574E0
6.002640350E-1,-4.448320866E0,-2.841134310E0,3.433673620E0,6.296802142E0
6.022643420E-1,-4.571715355E0,-2.860682011E0,3.473990679E0,6.415036562E0
6.042628040E-1,-4.799568176E0,-2.822808266E0,3.549127102E0,6.603060228E0
6.062935730E-1,-5.002986431E0,-2.791654110E0,3.630372047E0,6.782536922E0
6.082891500E-1,-5.106833458E0,-2.764775991E0,3.671300173E0,6.870384211E0
6.102886880E-1,-5.290092945E0,-2.681087494E0,3.734219313E0,7.008402628E0
6.122866500E-1,-5.459913731E0,-2.531425476E0,3.784310102E0,7.109133269E0
6.142861500E-1,-5.533828259E0,-2.433687210E0,3.803857803E0,7.142508160E0
6.162845340E-1,-5.660277367E0,-2.164906502E0,3.835622787E0,7.171998480E0
6.182842650E-1,-5.750685215E0,-1.885130167E0,3.842953205E0,7.168848270E0
6.202827650E-1,-5.787948132E0,-1.766011477E0,3.834401131E0,7.163921562E0
6.222827270E-1,-5.844147682E0,-1.538158655E0,3.797749281E0,7.137429074E0
6.242814570E-1,-5.894849777E0,-1.329853654E0,3.698789120E0,7.085111544E0
6.263008810E-1,-5.914397240E0,-1.222952247E0,3.638313293E0,7.050746806E0
6.282963810E-1,-5.912564754E0,-1.051299095E0,3.505144835E0,6.953394284E0
6.302967270E-1,-5.905845165E0,-9.700540304E-1,3.441004038E0,6.903659952E0
6.322956880E-1,-5.880188942E0,-8.075638413E-1,3.308446169E0,6.795189284E0
6.342960340E-1,-5.834984779E0,-6.621779203E-1,3.178331852E0,6.677373760E0
6.363015340E-1,-5.804441452E0,-5.900958180E-1,3.111136675E0,6.612028815E0
6.383016500E-1,-5.736635685E0,-4.508185387E-1,2.977967978E0,6.479237580E0
6.403006110E-1,-5.660888195E0,-3.158173263E-1,2.853351593E0,6.347204980E0
6.423007270E-1,-5.629123211E0,-2.431243658E-1,2.797152042E0,6.290484650E0
6.442998040E-1,-5.544823647E0,-9.590584040E-2,2.685974598E0,6.161876885E0
6.463159190E-1,-5.470298290E0,4.581489414E-2,2.583349228E0,6.049789717E0
6.483114960E-1,-5.429981232E0,1.014036313E-1,2.544864655E0,5.997609106E0
6.503116500E-1,-5.346903324E0,1.979203373E-1,2.472782612E0,5.894336389E0
6.523101110E-1,-5.271767139E0,2.547308207E-1,2.416582823E0,5.804850481E0
6.543101880E-1,-5.218621731E0,2.247984111E-1,2.404976368E0,5.750518101E0
6.563088420E-1,-5.072625160E0,6.719517522E-3,2.403143883E0,5.613080410E0
6.583087650E-1,-4.905858994E0,-3.133738637E-1,2.425745964E0,5.481778829E0
6.603071880E-1,-4.806898594E0,-5.057964325E-1,2.456289053E0,5.421758021E0
6.623070340E-1,-4.568661213E0,-9.126327038E-1,2.571742773E0,5.321599818E0
6.643061110E-1,-4.312708855E0,-1.197295904E0,2.733622074E0,5.244584330E0
6.663408420E-1,-4.202142239E0,-1.258382440E0,2.820975780E0,5.215307288E0
6.683361880E-1,-4.002388954E0,-1.311527729E0,3.012176514E0,5.178072004E0
6.703358030E-1,-3.833790302E0,-1.289536476E0,3.191770792E0,5.152499703E0
6.723347270E-1,-3.759264708E0,-1.254717231E0,3.275459528E0,5.141499936E0
6.743349190E-1,-3.639535189E0,-1.172861218E0,3.404351950E0,5.119710150E0
6.763336110E-1,-3.563176870E0,-1.120326877E0,3.477655888E0,5.103474522E0
6.783332270E-1,-3.533855438E0,-1.136209369E0,3.494149208E0,5.097860794E0
6.803318800E-1,-3.511864185E0,-1.247997642E0,3.496592760E0,5.110464666E0
6.823319570E-1,-3.511864185E0,-1.332907915E0,3.497814417E0,5.132693178E0
6.843371110E-1,-3.557679176E0,-1.594969153E0,3.527135849E0,5.257536973E0
6.863537650E-1,-3.634648323E0,-1.980425119E0,3.563176870E0,5.461591480E0
6.883496110E-1,-3.671300173E0,-2.211943150E0,3.581502914E0,5.585543893E0
6.903498420E-1,-3.751934290E0,-2.691472292E0,3.615100622E0,5.864297615E0
6.923488420E-1,-3.818518639E0,-3.130684376E0,3.684739113E0,6.161133953E0
6.943888030E-1,-3.851505280E0,-3.335324287E0,3.726888895E0,6.312541632E0
6.963844190E-1,-3.930306911E0,-3.758043051E0,3.805690527E0,6.637279592E0
6.983843800E-1,-3.996280432E0,-4.081801414E0,3.882659435E0,6.906982291E0
7.003828420E-1,-4.015217304E0,-4.213137627E0,3.919311523E0,7.016658854E0
7.023829960E-1,-4.050647259E0,-4.457483768E0,3.999334812E0,7.229908969E0
7.043815730E-1,-4.090353489E0,-4.612643242E0,4.070806026E0,7.387755481E0
7.064019570E-1,-4.094629765E0,-4.681060314E0,4.103181839E0,7.450799942E0
7.083978030E-1,-4.122118473E0,-4.754364014E0,4.170988083E0,7.549369475E0
7.103978800E-1,-4.151440144E0,-4.838663578E0,4.199698448E0,7.634434330E0
7.123969960E-1,-4.163046837E0,-4.872871876E0,4.216802597E0,7.671848762E0
7.143971110E-1,-4.203974724E0,-4.960836887E0,4.237572193E0,7.761464050E0
7.163959960E-1,-4.269948006E0,-5.034140587E0,4.219246387E0,7.834351760E0
7.183959570E-1,-4.312097549E0,-5.088507652E0,4.196033478E0,7.879961443E0
7.203945340E-1,-4.400062561E0,-5.217400074E0,4.132503510E0,7.978684060E0
7.223945730E-1,-4.515515804E0,-5.370727062E0,4.073860168E0,8.113626121E0
7.243938030E-1,-4.579656601E0,-5.452583313E0,4.037208557E0,8.185534332E0
7.264291880E-1,-4.720155716E0,-5.617516994E0,3.936415672E0,8.326568051E0
7.284249570E-1,-4.873482704E0,-5.750685215E0,3.833179474E0,8.456623380E0
7.304254570E-1,-4.938234806E0,-5.811771870E0,3.786753654E0,8.514831678E0
7.324316880E-1,-5.081177235E0,-5.911953926E0,3.725056171E0,8.639768793E0
7.344319190E-1,-5.211902142E0,-6.034126759E0,3.720169306E0,8.798537909E0
7.364306490E-1,-5.282762527E0,-6.091548443E0,3.729332209E0,8.883831441E0
7.384308800E-1,-5.400659561E0,-6.215553761E0,3.742160559E0,9.044556257E0
7.404299960E-1,-5.455637455E0,-6.254649162E0,3.747658253E0,9.106566782E0
7.424301880E-1,-5.532606602E0,-6.294966221E0,3.747047424E0,9.180234198E0
7.444286490E-1,-5.578421593E0,-6.241209984E0,3.739106178E0,9.168009846E0
7.464473800E-1,-5.586973667E0,-6.190508366E0,3.725667238E0,9.133305259E0
7.484421880E-1,-5.585140705E0,-6.061615944E0,3.686571836E0,9.029274415E0
7.504420340E-1,-5.519167423E0,-5.913175583E0,3.641367674E0,8.870536233E0
7.524404190E-1,-5.483737469E0,-5.820323944E0,3.621209145E0,8.778422587E0
7.544394950E-1,-5.383555412E0,-5.609575748E0,3.589444160E0,8.563534220E0
7.564375720E-1,-5.287649632E0,-5.351790428E0,3.543629169E0,8.316141359E0
7.584368800E-1,-5.246721745E0,-5.199074268E0,3.526525021E0,8.185037632E0
7.604348800E-1,-5.150204659E0,-4.891808987E0,3.496592760E0,7.917105792E0
7.624340720E-1,-5.052466393E0,-4.577824116E0,3.474601507E0,7.652237968E0
7.644321110E-1,-5.017647266E0,-4.421442509E0,3.461773396E0,7.530591809E0
7.664486490E-1,-4.953506470E0,-4.130671024E0,3.429397583E0,7.304822875E0
7.684436490E-1,-4.908302307E0,-3.878994226E0,3.401908636E0,7.121166345E0
7.704434180E-1,-4.888143539E0,-3.780034065E0,3.388469458E0,7.047292392E0
7.724415720E-1,-4.860044003E0,-3.624263525E0,3.365867615E0,6.934290058E0
7.744407260E-1,-4.849048138E0,-3.529579401E0,3.340821981E0,6.865296068E0
7.764384570E-1,-4.844161510E0,-3.503312111E0,3.324939489E0,6.840637331E0
7.784383420E-1,-4.839274406E0,-3.478266716E0,3.289509296E0,6.807186463E0
7.804438420E-1,-4.844772339E0,-3.480099201E0,3.242472649E0,6.789443154E0
7.824438420E-1,-4.847215652E0,-3.487429619E0,3.216205597E0,6.782451133E0
7.844421880E-1,-4.856378555E0,-3.506366491E0,3.154508114E0,6.769781391E0
7.864768030E-1,-4.875926495E0,-3.520416498E0,3.090367317E0,6.761535451E0
7.884722260E-1,-4.885089397E0,-3.528968573E0,3.055547953E0,6.756781105E0
7.904721110E-1,-4.905858994E0,-3.539353132E0,2.995072365E0,6.750180111E0
7.924709950E-1,-4.926017284E0,-3.543629169E0,2.934596539E0,6.740534906E0
7.944712650E-1,-4.930904388E0,-3.540575027E0,2.912605524E0,6.732960757E0
7.964702260E-1,-4.948619366E0,-3.516751289E0,2.874731779E0,6.717176197E0
7.984701880E-1,-4.956560612E0,-3.495981693E0,2.860071182E0,6.705921880E0
8.004686110E-1,-4.974886417E0,-3.435506105E0,2.841745138E0,6.680397630E0
8.024684180E-1,-4.988936424E0,-3.369532585E0,2.832582235E0,6.653326883E0
8.044669950E-1,-4.988936424E0,-3.334713459E0,2.830749512E0,6.634978771E0
8.064841880E-1,-4.999320984E0,-3.258965969E0,2.820975780E0,6.600907047E0
8.084798030E-1,-5.007262230E0,-3.186273098E0,2.813034534E0,6.567965788E0
8.104798030E-1,-5.013370991E0,-3.147788525E0,2.803260565E0,6.549864967E0
8.124779570E-1,-5.023144722E0,-3.075706482E0,2.789210796E0,6.517027707E0
8.144776880E-1,-5.043914318E0,-2.998126507E0,2.774549961E0,6.490605649E0
8.164761110E-1,-5.057353497E0,-2.959031343E0,2.767830372E0,6.480245045E0
8.184759570E-1,-5.101946354E0,-2.852740765E0,2.750726223E0,6.460223001E0
8.204744570E-1,-5.151426792E0,-2.738508940E0,2.737898111E0,6.444588061E0
8.224748800E-1,-5.182580948E0,-2.676200628E0,2.729956865E0,6.440020153E0
8.244728410E-1,-5.243667126E0,-2.558303595E0,2.711630821E0,6.433809441E0
8.264912260E-1,-5.348736286E0,-2.378098488E0,2.697580814E0,6.445252092E0
8.284869950E-1,-5.406768322E0,-2.283414364E0,2.686585426E0,6.454832771E0
8.304868800E-1,-5.514280796E0,-2.145358801E0,2.657263756E0,6.486209043E0
8.324852640E-1,-5.622403622E0,-2.039068222E0,2.609005451E0,6.525038785E0
8.344856110E-1,-5.681657791E0,-1.991420746E0,2.582127333E0,6.550906304E0
8.364843030E-1,-5.794667721E0,-1.941940665E0,2.526538610E0,6.613070761E0
8.384841870E-1,-5.901569366E0,-1.948660135E0,2.462397814E0,6.684998153E0
8.404821110E-1,-5.967542648E0,-1.949270964E0,2.428189278E0,6.731071662E0
8.424814180E-1,-6.117204666E0,-1.949270964E0,2.359772444E0,6.840202936E0
8.444804180E-1,-6.286414146E0,-1.937053680E0,2.300518513E0,6.968756360E0
8.465109570E-1,-6.299853325E0,-2.334116220E0,2.266921043E0,7.090499380E0
8.485062260E-1,-6.546031952E0,-2.904664278E0,2.221716881E0,7.498242113E0
8.505063800E-1,-6.692639828E0,-3.067765236E0,2.219884396E0,7.689635761E0
8.525050340E-1,-6.865514278E0,-3.469714642E0,2.215608358E0,8.005193714E0
8.545459180E-1,-7.032280922E0,-4.315152168E0,2.175291061E0,8.532608300E0
8.565411490E-1,-7.075041294E0,-4.475198746E0,2.155132532E0,8.644547956E0
8.585409950E-1,-7.150788784E0,-4.547891617E0,2.155743361E0,8.744388362E0
8.605393800E-1,-7.064656734E0,-4.632802010E0,2.162462950E0,8.720577690E0
8.625389180E-1,-6.988909245E0,-4.685336590E0,2.160630465E0,8.687091308E0
8.645373030E-1,-6.868568897E0,-4.688390732E0,2.152689219E0,8.590245469E0
8.665573410E-1,-6.769608498E0,-4.608978271E0,2.137417555E0,8.463972691E0
8.685527640E-1,-6.714019775E0,-4.549113274E0,2.127643585E0,8.384471381E0
8.705524950E-1,-6.611394405E0,-4.368908405E0,2.097711325E0,8.197456279E0
8.725505330E-1,-6.530149460E0,-4.116621017E0,2.063502789E0,7.990460833E0
8.745500330E-1,-6.492886543E0,-3.958406687E0,2.044565916E0,7.874440231E0
8.765554950E-1,-6.439130783E0,-3.568674803E0,2.002416372E0,7.629385062E0
8.785551870E-1,-6.403089523E0,-3.124575615E0,1.954157948E0,7.387913204E0
8.805527640E-1,-6.401867867E0,-2.888781786E0,1.927890658E0,7.283250289E0
8.825525330E-1,-6.398202419E0,-2.441628456E0,1.847867370E0,7.093176829E0
8.845504570E-1,-6.396369934E0,-2.036013842E0,1.739133358E0,6.934225662E0
8.865666490E-1,-6.395148277E0,-1.853976011E0,1.671938181E0,6.865167574E0
8.885614180E-1,-6.401257038E0,-1.524108768E0,1.521054506E0,6.753710537E0
8.905603800E-1,-6.420193672E0,-1.295034289E0,1.406822681E0,6.698891748E0
8.925585330E-1,-6.409809113E0,-1.250441194E0,1.342070937E0,6.667114101E0
8.945579180E-1,-6.485556126E0,-1.077566266E0,1.220508814E0,6.686795128E0
8.965558030E-1,-6.583905697E0,-9.755517840E-1,1.078177214E0,6.742550082E0
8.985556100E-1,-6.638883591E0,-9.327912331E-1,9.944885969E-1,6.777453975E0
9.005537640E-1,-6.770830154E0,-8.686503768E-1,7.984008789E-1,6.872855187E0
9.025532640E-1,-6.907664299E0,-8.362745047E-1,6.963863969E-1,6.992863157E0
9.045511870E-1,-6.970583439E0,-8.387179971E-1,4.929682612E-1,7.038145996E0
9.065853410E-1,-7.097032547E0,-8.509352803E-1,2.803871334E-1,7.153361362E0
9.085804950E-1,-7.158730030E0,-8.631525636E-1,1.698205322E-1,7.212578388E0
9.105801100E-1,-7.263187885E0,-8.930850029E-1,-5.009094998E-2,7.318060411E0
9.125780330E-1,-7.368867397E0,-9.279043078E-1,-2.675589919E-1,7.431877349E0
9.145778410E-1,-7.425677776E0,-9.401215911E-1,-3.781255782E-1,7.494497848E0
9.165757640E-1,-7.527081490E0,-9.505063295E-1,-6.126978397E-1,7.611558098E0
9.185753410E-1,-7.634593964E0,-9.810495973E-1,-8.552113175E-1,7.744731738E0
9.205733410E-1,-7.691404343E0,-9.987646937E-1,-9.822713137E-1,7.817933781E0
9.225731870E-1,-7.780590534E0,-1.070235968E0,-1.218065262E0,7.947746666E0
9.245785720E-1,-7.866111755E0,-1.150259256E0,-1.428813815E0,8.077147976E0
9.265946490E-1,-7.904596329E0,-1.211956620E0,-1.528384805E0,8.141710022E0
9.285902260E-1,-7.993171692E0,-1.335351467E0,-1.692707539E0,8.278841468E0
9.305899560E-1,-8.079915047E0,-1.450194120E0,-1.835039139E0,8.411626406E0
9.325879950E-1,-8.133670807E0,-1.498452425E0,-1.897958279E0,8.485529217E0
9.345877640E-1,-8.232020378E0,-1.615127683E0,-2.013411760E0,8.627202551E0
9.365861490E-1,-8.336478233E0,-1.742798567E0,-2.122145891E0,8.777113384E0
9.385858790E-1,-8.396343231E0,-1.809993744E0,-2.172847748E0,8.859792568E0
9.405841100E-1,-8.522791862E0,-1.924836397E0,-2.258368731E0,9.024588944E0
9.425835330E-1,-8.662679672E0,-2.052507162E0,-2.317622662E0,9.199248858E0
9.445816490E-1,-8.756142616E0,-2.131308794E0,-2.330451012E0,9.308249707E0
9.466009180E-1,-8.932071686E0,-2.230879784E0,-2.343889952E0,9.500134174E0
9.485961100E-1,-9.134267807E0,-2.189951897E0,-2.360383272E0,9.685150844E0
9.505957640E-1,-9.245445251E0,-2.150245667E0,-2.365270138E0,9.782449445E0
9.525938410E-1,-9.442144394E0,-2.043955088E0,-2.366492033E0,9.946463075E0
9.545930720E-1,-9.603412628E0,-2.012190104E0,-2.322509766E0,1.008307963E1
9.565912250E-1,-9.677327156E0,-1.992031574E0,-2.280359983E0,1.013996511E1
9.585908020E-1,-9.819047928E0,-1.862528086E0,-2.197282314E0,1.023282770E1
9.605887250E-1,-9.892352104E0,-1.786780834E0,-2.158186913E0,1.028148757E1
9.625882250E-1,-9.958325386E0,-1.691485882E0,-2.083050489E0,1.031350902E1
9.645865720E-1,-1.001635742E1,-1.621847272E0,-1.995696783E0,1.034120932E1
9.666208020E-1,-1.003834820E1,-1.607186437E0,-1.947438359E0,1.035103854E1
9.686158410E-1,-1.007805443E1,-1.639562368E0,-1.820378423E0,1.037155357E1
9.706153020E-1,-1.008966160E1,-1.750128984E0,-1.670105577E0,1.037561927E1
9.726203020E-1,-1.010493279E1,-1.798387289E0,-1.593136549E0,1.038662349E1
9.746199950E-1,-1.015807819E1,-1.885130167E0,-1.419650793E0,1.042859898E1
9.766184560E-1,-1.019228649E1,-2.008524895E0,-1.243110776E0,1.046241849E1
9.786181480E-1,-1.020328236E1,-2.088548183E0,-1.152091861E0,1.047837392E1
9.806164180E-1,-1.021611023E1,-2.302350998E0,-9.547823668E-1,1.051576615E1
9.826164560E-1,-1.022893810E1,-2.555860281E0,-7.605272532E-1,1.057080878E1
9.846150330E-1,-1.024298859E1,-2.705522060E0,-6.554583907E-1,1.061453204E1
9.866379560E-1,-1.024482059E1,-2.997515678E0,-4.636467099E-1,1.068440066E1
9.886334180E-1,-1.028086185E1,-3.206431627E0,-2.596177161E-1,1.077240575E1
9.906337640E-1,-1.029430103E1,-3.262020350E0,-1.606575549E-1,1.079996395E1
9.926326480E-1,-1.033767223E1,-3.321274281E0,3.420845419E-2,1.085815363E1
9.946327640E-1,-1.035050106E1,-3.309667826E0,2.345722616E-1,1.086930529E1
9.966314180E-1,-1.035111141E1,-3.272405148E0,3.371976018E-1,1.086130034E1
9.986318790E-1,-1.033828354E1,-3.197268724E0,5.265658498E-1,1.083420073E1
1.000630610E0,-1.028635979E1,-3.131295204E0,7.098253965E-1,1.077580899E1
1.002630918E0,-1.025948143E1,-3.083036900E0,7.990117669E-1,1.074246227E1
1.004629764E0,-1.016113281E1,-2.986520290E0,9.566149712E-1,1.063405077E1
1.006655802E0,-1.008172035E1,-2.852129936E0,1.091005325E0,1.053404115E1
1.008651648E0,-1.002307701E1,-2.779436827E0,1.145983219E0,1.046425436E1
1.010651879E0,-9.914342880E0,-2.611449003E0,1.237612963E0,1.032693306E1
1.012650687E0,-9.791559219E0,-2.433076382E0,1.310916781E0,1.017413365E1
1.014691571E0,-9.724364281E0,-2.325563908E0,1.342681766E0,1.008832506E1
1.016687341E0,-9.589362144E0,-2.096489429E0,1.406822681E0,9.916162782E0
1.018687341E0,-9.503231049E0,-1.987755537E0,1.439809442E0,9.815071251E0
1.020693418E0,-9.360898972E0,-1.758070230E0,1.518000126E0,9.644768783E0
1.022693148E0,-9.215513229E0,-1.547932506E0,1.595579982E0,9.479855199E0
1.024691802E0,-9.083566666E0,-1.348790407E0,1.674992561E0,9.334667590E0
1.026726533E0,-9.016982079E0,-1.252884626E0,1.709200978E0,9.262669900E0
1.028722302E0,-8.887478828E0,-1.073901057E0,1.772120118E0,9.125839858E0
1.030722494E0,-8.823337555E0,-9.963212013E-1,1.801441550E0,9.060305359E0
1.032721148E0,-8.695666313E0,-8.607091308E-1,1.857641220E0,8.933435159E0
1.034720879E0,-8.557000160E0,-7.360926270E-1,1.908953905E0,8.798192377E0
1.036719187E0,-8.488583565E0,-6.762278080E-1,1.932777643E0,8.732065300E0
1.038719110E0,-8.379238129E0,-5.265658498E-1,1.976759911E0,8.625339585E0
1.040717725E0,-8.303491592E0,-3.292563558E-1,2.016466141E0,8.551170567E0
1.042717879E0,-8.258287430E0,-2.247984111E-1,2.027461767E0,8.506494391E0
1.044716533E0,-8.184983253E0,1.832595794E-3,2.045176744E0,8.436628600E0
1.046732610E0,-8.117177010E0,2.113593817E-1,2.051285505E0,8.375022843E0
1.048727764E0,-8.087856293E0,3.084869385E-1,2.051285505E0,8.349632077E0
1.050727340E0,-8.042040825E0,4.960225821E-1,2.043344259E0,8.312383220E0
1.052725494E0,-8.007832527E0,6.646214128E-1,2.017076969E0,8.284666735E0
1.054725456E0,-7.994393349E0,7.415903807E-1,1.996918440E0,8.273328506E0
1.056724302E0,-7.972402096E0,8.869763613E-1,1.947438359E0,8.254601045E0
1.058723956E0,-7.955297947E0,1.020755768E0,1.892460585E0,8.240759360E0
1.060722033E0,-7.951632977E0,1.087340117E0,1.868025899E0,8.240163608E0
1.062721764E0,-7.930252552E0,1.205847979E0,1.808771968E0,8.222811619E0
1.064719725E0,-7.931474209E0,1.338405728E0,1.744631171E0,8.230634905E0
1.066738187E0,-7.944302559E0,1.411709547E0,1.714087844E0,8.248815923E0
1.068733763E0,-7.943691730E0,1.505172014E0,1.631010175E0,8.247907328E0
1.070733340E0,-7.951632977E0,1.583362699E0,1.537547827E0,8.252245619E0
1.072731610E0,-7.958352566E0,1.618792892E0,1.486845970E0,8.256305283E0
1.074731379E0,-7.974845886E0,1.665218711E0,1.379333735E0,8.262788985E0
1.076729610E0,-7.987673759E0,1.684766293E0,1.324355841E0,8.270144372E0
1.078728802E0,-8.013940811E0,1.687820673E0,1.218065262E0,8.279835079E0
1.080726994E0,-8.054868698E0,1.668272972E0,1.125213742E0,8.302418348E0
1.082726648E0,-8.078692436E0,1.657888293E0,1.078177214E0,8.317230980E0
1.084724763E0,-8.129394531E0,1.618792892E0,9.908234477E-1,8.348010360E0
1.086759033E0,-8.174598694E0,1.552208543E0,9.028588533E-1,8.369502331E0
1.088753956E0,-8.197200775E0,1.512502313E0,8.613200188E-1,8.379954413E0
1.090753456E0,-8.246069908E0,1.426370382E0,7.751879692E-1,8.404351122E0
1.092751571E0,-8.288830757E0,1.326188445E0,6.957755089E-1,8.423039515E0
1.094750994E0,-8.304101944E0,1.274264932E0,6.615670323E-1,8.427308654E0
1.096749148E0,-8.337088585E0,1.168585181E0,5.998696685E-1,8.439933709E0
1.098748686E0,-8.364578247E0,1.064127207E0,5.595525503E-1,8.450540516E0
1.100746917E0,-8.377406120E0,1.012203693E0,5.455026627E-1,8.455948366E0
1.102746648E0,-8.358469009E0,8.539896011E-1,5.308418870E-1,8.418734794E0
1.104744533E0,-8.115345001E0,4.166100919E-1,6.249151230E-1,8.150024992E0
1.106763802E0,-8.040819168E0,1.997529417E-1,7.941248417E-1,8.082407339E0
1.108758609E0,-7.951022148E0,1.301143020E-1,1.066570759E0,8.023294592E0
1.110758225E0,-7.896044254E0,2.388483137E-1,1.131322384E0,7.980253988E0
1.112756802E0,-7.871609688E0,3.121521473E-1,1.122770309E0,7.957404804E0
1.114756725E0,-7.829459667E0,4.581489265E-1,1.092837930E0,7.918625756E0
1.116761917E0,-7.767762661E0,5.742133260E-1,1.071457624E0,7.862307495E0
1.118761417E0,-7.732943058E0,6.096435189E-1,1.076955438E0,7.831341301E0
1.120759571E0,-7.635815620E0,6.273586154E-1,1.114218235E0,7.742140615E0
1.122759225E0,-7.526470661E0,5.858197808E-1,1.195463300E0,7.643302816E0
1.124757302E0,-7.465994835E0,5.552765131E-1,1.243110776E0,7.589119533E0
1.126773609E0,-7.335880756E0,5.161811113E-1,1.343292713E0,7.475695601E0
1.128768956E0,-7.261355400E0,5.002986193E-1,1.392161846E0,7.410512503E0
1.130768917E0,-7.098865032E0,4.575380683E-1,1.491122007E0,7.268195833E0
1.132767071E0,-6.913773060E0,4.288274050E-1,1.539991260E0,7.096176713E0
1.134767109E0,-6.814201832E0,4.294382632E-1,1.553430319E0,7.002207479E0
1.136765340E0,-6.593068600E0,4.514294267E-1,1.579086661E0,6.794546105E0
1.138765225E0,-6.324898720E0,4.489859641E-1,1.596190929E0,6.538635767E0
1.140763763E0,-6.169738770E0,4.324925840E-1,1.599856019E0,6.388447824E0
1.142763186E0,-5.844147682E0,4.056145251E-1,1.609019041E0,6.075156586E0
1.144761571E0,-5.495954514E0,3.316998184E-1,1.604743004E0,5.735044977E0
1.146795763E0,-5.304142952E0,2.938261926E-1,1.583973527E0,5.543395929E0
1.148791379E0,-4.932126045E0,2.803871334E-1,1.517389297E0,5.167877180E0
1.150791686E0,-4.560109138E0,3.207042515E-1,1.425759435E0,4.788552656E0
1.152790455E0,-4.371351719E0,3.390302062E-1,1.373835921E0,4.594679801E0
1.154790686E0,-3.989560843E0,3.585779071E-1,1.270599723E0,4.202332387E0
1.156789263E0,-3.608991861E0,3.280346394E-1,1.173472166E0,3.809129284E0
1.158789186E0,-3.430008411E0,3.194825351E-1,1.130100727E0,3.625486787E0
1.160787725E0,-3.139236450E0,3.164281845E-1,1.043968678E0,3.323372216E0
1.162787763E0,-3.101362944E0,2.302961946E-1,9.077457786E-1,3.239674497E0
1.164793994E0,-3.263242245E0,6.169738993E-2,8.503243923E-1,3.372774539E0
1.166810648E0,-3.632204771E0,-5.186246037E-1,8.869763613E-1,3.774733109E0
1.168806378E0,-4.153883457E0,-1.212567568E0,9.621127844E-1,4.432914266E0
1.170806109E0,-4.443433762E0,-1.503339410E0,9.340129495E-1,4.782939804E0
1.172804455E0,-4.997488499E0,-1.973705649E0,8.216137290E-1,5.435573052E0
1.174845263E0,-5.448917866E0,-2.364659309E0,6.957755089E-1,5.980503584E0
1.176840532E0,-5.637064457E0,-2.494773626E0,5.998696685E-1,6.193563979E0
1.178840263E0,-5.923560143E0,-2.653598547E0,3.707951903E-1,6.501356711E0
1.180838763E0,-6.063448429E0,-2.730567694E0,1.429424733E-1,6.651453926E0
1.182838878E0,-6.108041763E0,-2.712241650E0,4.092797264E-2,6.683270460E0
1.184837340E0,-6.169127941E0,-2.616335869E0,-1.166752651E-1,6.702012090E0
1.186870494E0,-6.216775417E0,-2.483778000E0,-2.113593817E-1,6.697919269E0
1.188866109E0,-6.239988327E0,-2.400089502E0,-2.364048511E-1,6.689825946E0
1.190865917E0,-6.303518295E0,-2.206445217E0,-2.645046413E-1,6.683764366E0
1.192864378E0,-6.340170383E0,-2.099543810E0,-2.724458873E-1,6.684315332E0
1.194863917E0,-6.406754494E0,-1.894293070E0,-2.871066630E-1,6.687097996E0
1.196862917E0,-6.475782394E0,-1.645060062E0,-3.017674387E-1,6.688276595E0
1.198862801E0,-6.492275715E0,-1.526552200E0,-3.188716471E-1,6.676951753E0
1.200861801E0,-6.505714893E0,-1.315803766E0,-3.597996235E-1,6.647188999E0
1.202862032E0,-6.508769035E0,-1.081842303E0,-4.007275999E-1,6.610222366E0
1.204860571E0,-6.503271580E0,-9.761626720E-1,-4.123340547E-1,6.589040459E0
1.206891417E0,-6.491664886E0,-7.990117669E-1,-4.263839424E-1,6.554535534E0
1.208886763E0,-6.487389088E0,-6.114761233E-1,-4.361577928E-1,6.530723838E0
1.210886763E0,-6.488610744E0,-5.320636034E-1,-4.379903674E-1,6.525105105E0
1.212892532E0,-6.487389088E0,-4.453207552E-1,-4.410447180E-1,6.517595277E0
1.214892378E0,-6.491054058E0,-3.878994286E-1,-4.495968223E-1,6.518158180E0
1.216890801E0,-6.496551991E0,-3.646865487E-1,-4.654793143E-1,6.523408238E0
1.218890801E0,-6.512434483E0,-2.406809032E-1,-5.161811113E-1,6.537290962E0
1.220888955E0,-6.494719505E0,-1.899790913E-1,-5.687155724E-1,6.522339374E0
1.222888994E0,-6.477614880E0,-1.936442852E-1,-5.986479521E-1,6.508100492E0
1.224887724E0,-6.449515343E0,-2.131919712E-1,-6.487388611E-1,6.485565595E0
1.226908071E0,-6.437297821E0,-2.113593817E-1,-7.147123218E-1,6.480300126E0
1.228903340E0,-6.431800365E0,-2.229658216E-1,-7.513642311E-1,6.479376352E0
1.230903224E0,-6.414695740E0,-2.425135076E-1,-8.313875794E-1,6.472892672E0
1.232901878E0,-6.407976627E0,-2.254092693E-1,-9.224064946E-1,6.477947787E0
1.234901763E0,-6.407365322E0,-2.193006277E-1,-9.718865752E-1,6.484364784E0
1.236900109E0,-6.397591591E0,-1.661553532E-1,-1.067181587E0,6.488117008E0
1.238900455E0,-6.368881226E0,-1.734857261E-1,-1.142928839E0,6.472946137E0
1.240899571E0,-6.342613697E0,-2.131919712E-1,-1.185689449E0,6.456009510E0
1.242899686E0,-6.310237885E0,-2.864958048E-1,-1.280984402E0,6.445316365E0
1.244898801E0,-6.280916214E0,-3.628539443E-1,-1.374446750E0,6.439772926E0
1.246915609E0,-6.265645027E0,-4.056145251E-1,-1.421483397E0,6.437658410E0
1.248911340E0,-6.243653774E0,-4.776966274E-1,-1.518610954E0,6.443414138E0
1.250911147E0,-6.226549625E0,-5.448917747E-1,-1.563814998E0,6.443007421E0
1.252909186E0,-6.201503754E0,-6.750060916E-1,-1.642005801E0,6.450617419E0
1.254909224E0,-6.172793388E0,-8.454375267E-1,-1.715920448E0,6.462393195E0
1.256907378E0,-6.169738770E0,-9.028588533E-1,-1.752572417E0,6.477062658E0
1.258906840E0,-6.148969650E0,-1.065959811E0,-1.820989251E0,6.500930697E0
1.260912301E0,-6.130643368E0,-1.216232657E0,-1.899180055E0,6.532296293E0
1.262912263E0,-6.121480465E0,-1.288314819E0,-1.939497113E0,6.549345556E0
1.264910994E0,-6.115372181E0,-1.334740520E0,-2.023185730E0,6.578190455E0
1.266906417E0,-6.099489689E0,-1.342681766E0,-2.106263399E0,6.591123902E0
1.268901763E0,-6.092159271E0,-1.337794900E0,-2.145358801E0,6.595958169E0
1.270901532E0,-6.066502571E0,-1.321912408E0,-2.222938538E0,6.594798071E0
1.272899801E0,-6.048176765E0,-1.290758252E0,-2.291355610E0,6.595211110E0
1.274899532E0,-6.037181377E0,-1.247386813E0,-2.327396631E0,6.589408769E0
1.276897493E0,-6.011524677E0,-1.112385631E0,-2.388483047E0,6.563587586E0
1.278897032E0,-5.951660156E0,-1.067792416E0,-2.434908867E0,6.518529010E0
1.280894763E0,-5.924170971E0,-1.009149432E0,-2.454456568E0,6.491420593E0
1.282894224E0,-5.871026039E0,-8.570439219E-1,-2.492941141E0,6.435699385E0
1.284892455E0,-5.814215183E0,-6.407976151E-1,-2.538145065E0,6.376354770E0
1.286909186E0,-5.780006886E0,-5.473352671E-1,-2.557692766E0,6.344276773E0
1.288904340E0,-5.707924843E0,-2.919935882E-1,-2.597398996E0,6.277909510E0
1.290903724E0,-5.669440269E0,-1.441642046E-1,-2.620001078E0,6.247218736E0
1.292901532E0,-5.566814899E0,3.115412779E-2,-2.641992092E0,6.162022470E0
1.294900493E0,-5.460524559E0,7.880161703E-2,-2.647490025E0,6.068998400E0
1.296898493E0,-5.420207500E0,1.276708394E-1,-2.647490025E0,6.033585387E0
1.298897916E0,-5.331631660E0,2.241875380E-1,-2.651766062E0,5.958894148E0
1.300895916E0,-5.244277954E0,3.286454976E-1,-2.664594173E0,5.891563564E0
1.302895147E0,-5.181358814E0,2.614503205E-1,-2.676811457E0,5.837821084E0
1.304892532E0,-5.111720562E0,3.830125034E-1,-2.704300404E0,5.795655817E0
1.306911455E0,-5.034751415E0,5.369505286E-1,-2.762332678E0,5.767800231E0
1.308905570E0,-4.988936424E0,5.864306092E-1,-2.795930147E0,5.748966246E0
1.310904570E0,-4.918686867E0,6.456845403E-1,-2.863736153E0,5.728121313E0
1.312902070E0,-4.867374420E0,6.194173694E-1,-2.928488016E0,5.714110052E0
1.314901224E0,-4.871039391E0,6.035348773E-1,-2.958420277E0,5.730927466E0
1.316898993E0,-4.904026031E0,4.379903674E-1,-3.012176514E0,5.771872680E0
1.318897878E0,-4.962058544E0,2.504547536E-1,-3.089756489E0,5.850756168E0
1.320895339E0,-4.990158081E0,1.820378453E-1,-3.147177696E0,5.902503105E0
1.322894263E0,-5.031696796E0,5.436700583E-2,-3.266296387E0,5.999134980E0
1.324891647E0,-5.042692661E0,-1.832595766E-1,-3.406184673E0,6.088056125E0
1.326923070E0,-5.053688049E0,-3.139847219E-1,-3.473379850E0,6.140253813E0
1.328917416E0,-5.033529758E0,-4.972442985E-1,-3.602883101E0,6.210027404E0
1.330917070E0,-4.973664761E0,-6.236934066E-1,-3.762929916E0,6.267852597E0
1.332915493E0,-4.928460598E0,-6.023131609E-1,-3.846007586E0,6.280468084E0
1.334956070E0,-4.829500675E0,-5.589417219E-1,-4.001167297E0,6.296493656E0
1.336951147E0,-4.767803192E0,-6.114761233E-1,-4.143498898E0,6.346214103E0
1.338950493E0,-4.746422768E0,-6.701191664E-1,-4.205196381E0,6.376618648E0
1.340949109E0,-4.684725761E0,-6.701191664E-1,-4.317595482E0,6.406039799E0
1.342948416E0,-4.621806622E0,-6.279694438E-1,-4.439157963E0,6.439065576E0
1.344946762E0,-4.576602459E0,-6.395758986E-1,-4.503909588E0,6.452871374E0
1.346966416E0,-4.513683319E0,-5.949827433E-1,-4.630969524E0,6.494091184E0
1.348961916E0,-4.490470409E0,-5.302310586E-1,-4.685336590E0,6.511363024E0
1.350961455E0,-4.437325001E0,-2.767219543E-1,-4.797124863E0,6.540553123E0
1.352959262E0,-4.378682137E0,1.185078546E-1,-4.886311054E0,6.562235677E0
1.354958801E0,-4.329202175E0,3.268128932E-1,-4.921130180E0,6.562493458E0
1.356963839E0,-4.211305141E0,6.945537925E-1,-4.971832275E0,6.552603463E0
1.358963570E0,-4.076914787E0,9.285151958E-1,-4.994434357E0,6.513658664E0
1.360961839E0,-4.008497715E0,1.016479731E0,-4.994434357E0,6.484262450E0
1.362961262E0,-3.870442152E0,1.133154988E0,-4.991990566E0,6.417502045E0
1.364959493E0,-3.739717007E0,1.163698316E0,-4.979773521E0,6.335441688E0
1.366975685E0,-3.681073904E0,1.161254883E0,-4.970610619E0,6.293312952E0
1.368970916E0,-3.571729183E0,1.160643935E0,-4.953506470E0,6.216234395E0
1.370970301E0,-3.456275463E0,1.037860036E0,-4.940678120E0,6.118275395E0
1.372968647E0,-3.407406330E0,9.889908433E-1,-4.930904388E0,6.074729531E0
1.374968378E0,-3.307835340E0,8.026769161E-1,-4.919908524E0,5.982605181E0
1.376966493E0,-3.205820799E0,6.328563690E-1,-4.910745621E0,5.898577517E0
1.378965955E0,-3.152675629E0,5.497786999E-1,-4.903415203E0,5.855348059E0
1.380963955E0,-3.045774221E0,3.982841372E-1,-4.896695614E0,5.780397806E0
1.382963532E0,-2.938872576E0,2.968805134E-1,-4.899750233E0,5.721246577E0
1.384961685E0,-2.890003443E0,2.803871334E-1,-4.910134792E0,5.704398349E0
1.386995532E0,-2.789210796E0,2.822197378E-1,-4.943732262E0,5.683294249E0
1.388990224E0,-2.707965612E0,3.268128932E-1,-4.996266842E0,5.692325253E0
1.390989378E0,-2.678033352E0,3.738495409E-1,-5.023144722E0,5.704700607E0
1.392987185E0,-2.618168354E0,4.685336351E-1,-5.075679302E0,5.730344639E0
1.394986531E0,-2.627331495E0,5.986479521E-1,-5.121494293E0,5.787136939E0
1.396984493E0,-2.634661913E0,5.968153477E-1,-5.145928860E0,5.811902940E0
1.398984185E0,-2.657263756E0,6.157521605E-1,-5.178915501E0,5.853321036E0
1.400982262E0,-2.695748329E0,6.517932415E-1,-5.186245918E0,5.881244784E0
1.402981801E0,-2.780658484E0,6.517932415E-1,-5.203960896E0,5.936169222E0
1.404987070E0,-2.857016802E0,6.310238242E-1,-5.205793381E0,5.971684921E0
1.407003108E0,-2.918714046E0,6.206390858E-1,-5.199074268E0,5.994535662E0
1.408998108E0,-3.021339417E0,6.059783101E-1,-5.194797993E0,6.040002299E0
1.410997262E0,-3.134960413E0,5.485569835E-1,-5.196019650E0,6.093234917E0
1.412994916E0,-3.202766418E0,5.198463202E-1,-5.188078403E0,6.119159293E0
1.414993878E0,-3.340821981E0,4.373795092E-1,-5.172806740E0,6.173355807E0
1.416991608E0,-3.464827776E0,3.268128932E-1,-5.134322166E0,6.202668965E0
1.418990301E0,-3.546072721E0,2.712241709E-1,-5.110498428E0,6.226185709E0
1.420987301E0,-3.720780134E0,1.716531366E-1,-5.042081833E0,6.268672811E0
1.422986147E0,-3.928474426E0,6.414084882E-2,-4.962669373E0,6.329700836E0
1.424983762E0,-4.061032295E0,1.343903504E-2,-4.918076038E0,6.378058939E0
1.427002839E0,-4.290717602E0,-8.857546002E-2,-4.820337772E0,6.453972373E0
1.428997262E0,-4.468479156E0,-1.301143020E-1,-4.707327366E0,6.491776847E0
1.430996301E0,-4.545448303E0,-1.081231460E-1,-4.653571606E0,6.506037164E0
1.432993454E0,-4.636466980E0,3.359758854E-2,-4.546059132E0,6.493428099E0
1.434992531E0,-4.720155716E0,2.767219543E-1,-4.426329613E0,6.476792328E0
1.436990262E0,-4.753142357E0,4.092797041E-1,-4.362188816E0,6.464407429E0
1.438989185E0,-4.805676937E0,7.006624341E-1,-4.219246387E0,6.433311647E0
1.440986954E0,-4.844161510E0,9.498954415E-1,-4.073249340E0,6.399965803E0
1.442986224E0,-4.853935242E0,1.050077319E0,-4.005443573E0,6.380198110E0
1.444984339E0,-4.852713585E0,1.244943380E0,-3.861890078E0,6.325575715E0
1.447015647E0,-4.865541458E0,1.398881435E0,-3.708562851E0,6.275651470E0
1.449010070E0,-4.836831093E0,1.458746195E0,-3.640756845E0,6.227197274E0
1.451008993E0,-4.805676937E0,1.528384805E0,-3.510642529E0,6.144518036E0
1.453012877E0,-4.797124863E0,1.552819490E0,-3.448945284E0,6.108917980E0
1.455012377E0,-4.792848587E0,1.585806131E0,-3.345708847E0,6.056397143E0
1.457010454E0,-4.829500675E0,1.547321677E0,-3.244916201E0,6.020611455E0
1.459010031E0,-4.885700226E0,1.461189628E0,-3.178331852E0,6.008904658E0
1.461008185E0,-5.335297108E0,1.028697014E0,-2.978579044E0,6.196413955E0
1.463007224E0,-5.674938202E0,3.237585723E-1,-2.786156416E0,6.330277307E0
1.465004993E0,-5.836206436E0,-5.070181563E-2,-2.690250635E0,6.426610671E0
1.467033877E0,-6.127589226E0,-7.434229851E-1,-2.499660492E0,6.659454184E0
1.469028031E0,-6.398813248E0,-1.359786034E0,-2.353663683E0,6.952234300E0
1.471027185E0,-6.516099453E0,-1.646892667E0,-2.307848930E0,7.106192667E0
1.473024993E0,-6.736621857E0,-2.158797741E0,-2.255314589E0,7.424885563E0
1.475024570E0,-6.960198402E0,-2.511266947E0,-2.249816656E0,7.733854050E0
1.477022608E0,-7.072597980E0,-2.627331495E0,-2.270586014E0,7.879090926E0
1.479022147E0,-7.274794102E0,-2.673146248E0,-2.354885578E0,8.100236180E0
1.481020300E0,-7.467827797E0,-2.523484230E0,-2.476447821E0,8.262518894E0
1.483019800E0,-7.550294399E0,-2.420858860E0,-2.532036543E0,8.323383458E0
1.485018070E0,-7.677354336E0,-2.196671486E0,-2.618168354E0,8.403686140E0
1.487033070E0,-7.792197227E0,-1.852754235E0,-2.694526672E0,8.450533112E0
1.489028339E0,-7.839233875E0,-1.634064555E0,-2.731789351E0,8.460876301E0
1.491028108E0,-7.888103008E0,-1.175915599E0,-2.799595356E0,8.452377223E0
1.493026570E0,-7.880772591E0,-6.640105247E-1,-2.854573250E0,8.408095804E0
1.495066993E0,-7.852061749E0,-4.105014503E-1,-2.873510122E0,8.371406427E0
1.497062339E0,-7.740273476E0,9.162978828E-2,-2.891836166E0,8.263349557E0
1.499062416E0,-7.546629429E0,6.004805565E-1,-2.903442621E0,8.108154641E0
1.501068608E0,-7.433619022E0,8.936958313E-1,-2.907718658E0,8.031949440E0
1.503068685E0,-7.145290852E0,1.525330544E0,-2.915048838E0,7.866341230E0
1.505067070E0,-6.812369347E0,2.204612732E0,-2.926655293E0,7.735244315E0
1.507101646E0,-6.648046494E0,2.562579632E0,-2.921157598E0,7.700421954E0
1.509097339E0,-6.313292503E0,3.307835340E0,-2.930320501E0,7.706245202E0
1.511096839E0,-6.162408829E0,3.697567225E0,-2.933374882E0,7.762214513E0
1.513095839E0,-5.845980167E0,4.451375008E0,-2.965750694E0,7.923755471E0
1.515096069E0,-5.527108669E0,5.129435539E0,-3.029280663E0,8.126289468E0
1.517094800E0,-5.369505405E0,5.422039986E0,-3.067765236E0,8.224432470E0
1.519094723E0,-5.062850952E0,5.873469353E0,-3.143512487E0,8.367303793E0
1.521093416E0,-4.785518169E0,6.125756741E0,-3.197268724E0,8.405272577E0
1.523093762E0,-4.670064926E0,6.180734634E0,-3.216205597E0,8.387786685E0
1.525092185E0,-4.444044590E0,5.968153477E0,-3.200323105E0,8.100028161E0
1.527108377E0,-4.233295918E0,5.242445469E0,-3.161227703E0,7.442942255E0
1.529104069E0,-4.170988083E0,4.830722332E0,-3.148399591E0,7.116560955E0
1.531104031E0,-4.062864780E0,3.362813234E0,-3.083036900E0,6.109050630E0
1.533102954E0,-4.096462250E0,1.577254057E0,-3.053104401E0,5.346978568E0
1.535102723E0,-4.229020119E0,1.047633886E0,-3.069597960E0,5.329594690E0
1.537101416E0,-4.478864193E0,1.063516378E0,-3.117245436E0,5.559542306E0
1.539100992E0,-4.667621136E0,-9.651670605E-2,-3.180164576E0,5.648844950E0
1.541099954E0,-4.791626930E0,-5.503895879E-1,-3.205209970E0,5.791026532E0
1.543099762E0,-5.068348885E0,-1.768454909E0,-3.257744312E0,6.279211032E0
1.545097954E0,-5.411044121E0,-3.108693123E0,-3.273626804E0,7.046985445E0
1.547117800E0,-5.598579884E0,-3.751323462E0,-3.270572424E0,7.490872339E0
1.549113377E0,-5.993198872E0,-4.947397709E0,-3.265074730E0,8.429465570E0
1.551113492E0,-6.392094135E0,-5.949216843E0,-3.262020350E0,9.321632112E0
1.553112031E0,-6.621779442E0,-6.273586273E0,-3.257744312E0,9.686007728E0
1.555112300E0,-7.249137878E0,-5.866138935E0,-3.185662270E0,9.854442150E0
1.557111300E0,-7.798305511E0,-5.114163876E0,-3.053715467E0,9.812921031E0
1.559111262E0,-7.957130909E0,-4.767192364E0,-2.984076738E0,9.744063286E0
1.561110415E0,-8.226522446E0,-3.938858986E0,-2.850908041E0,9.556043026E0
1.563110915E0,-8.379849434E0,-3.465438604E0,-2.765387058E0,9.480427566E0
1.565109954E0,-8.434826851E0,-2.546086311E0,-2.552195072E0,9.172925335E0
1.567142723E0,-8.329758644E0,-1.733024716E0,-2.321287870E0,8.819106027E0
1.569138339E0,-8.219802856E0,-1.400103092E0,-2.203390837E0,8.624406000E0
1.571138377E0,-7.937582970E0,-8.655960560E-1,-1.984701157E0,8.227607101E0
1.573136915E0,-7.614435196E0,-4.300491214E-1,-1.795332909E0,7.835035791E0
1.575137031E0,-7.447058201E0,-2.254092693E-1,-1.714698792E0,7.645238854E0
1.577135723E0,-7.129408360E0,2.180788964E-1,-1.596190929E0,7.309161884E0
1.579135492E0,-6.822143078E0,6.805039048E-1,-1.524108768E0,7.023363103E0
1.581133723E0,-6.666983128E0,9.132435322E-1,-1.499063253E0,6.894190918E0
1.583133415E0,-6.376822472E0,1.406211853E0,-1.465465665E0,6.692449942E0
1.585131608E0,-6.082995892E0,1.890627980E0,-1.441641927E0,6.531128893E0
1.587158915E0,-5.946773052E0,2.134974003E0,-1.432479024E0,6.478751414E0
1.589153992E0,-5.700594425E0,2.596788168E0,-1.400103092E0,6.418751768E0
1.591154031E0,-5.495954514E0,2.960253000E0,-1.345736146E0,6.385892233E0
1.593152723E0,-5.421429157E0,3.069597960E0,-1.307251573E0,6.365786080E0
1.595152338E0,-5.323690414E0,3.097697735E0,-1.215011001E0,6.278030154E0
1.597158569E0,-5.258327961E0,2.900388241E0,-1.131933331E0,6.110935932E0
1.599158492E0,-5.226562977E0,2.742174149E0,-1.102611780E0,6.004351118E0
1.601156915E0,-5.169141769E0,2.368324518E0,-1.085507512E0,5.788550269E0
1.603156915E0,-5.117828846E0,1.985922933E0,-1.122770309E0,5.603273611E0
1.605155261E0,-5.094615936E0,1.815491557E0,-1.159422278E0,5.531309172E0
1.607172300E0,-5.036583900E0,1.549765110E0,-1.265712738E0,5.419499794E0
1.609167646E0,-4.970610619E0,1.413542151E0,-1.395827055E0,5.352887492E0
1.611167992E0,-4.927849770E0,1.393383622E0,-1.466687441E0,5.326949720E0
1.613166338E0,-4.828279018E0,1.448972344E0,-1.612073421E0,5.292502230E0
1.615166415E0,-4.721377373E0,1.621847272E0,-1.753183246E0,5.291072137E0
1.617164954E0,-4.651738644E0,1.726305127E0,-1.822821856E0,5.285970234E0
1.619164531E0,-4.522846222E0,1.968818665E0,-1.940108061E0,5.300604132E0
1.621162800E0,-4.455040455E0,2.089159250E0,-1.993253350E0,5.308957595E0
1.623162531E0,-4.311486721E0,2.319455385E0,-2.101987362E0,5.327958511E0
1.625160415E0,-4.176485538E0,2.510656118E0,-2.205223560E0,5.348778977E0
1.627193838E0,-4.111733913E0,2.584570885E0,-2.256536245E0,5.355214119E0
1.629188608E0,-3.993836880E0,2.682309389E0,-2.353052855E0,5.355592817E0
1.631187915E0,-3.894876719E0,2.693915844E0,-2.439184904E0,5.326994483E0
1.633185915E0,-3.854559660E0,2.671924591E0,-2.477669477E0,5.304305537E0
1.635185300E0,-3.784921169E0,2.558914423E0,-2.557692766E0,5.235977804E0
1.637183454E0,-3.743382215E0,2.364659309E0,-2.634050846E0,5.151965442E0
1.639182954E0,-3.734219313E0,2.239432096E0,-2.674978971E0,5.110280079E0
1.641180838E0,-3.732997417E0,1.939497113E0,-2.754391432E0,5.028279122E0
1.643180069E0,-3.759264708E0,1.587027907E0,-2.830138683E0,4.965925260E0
1.645185377E0,-3.781255960E0,1.390940189E0,-2.869844913E0,4.946576703E0
1.647201146E0,-3.830735922E0,9.700540304E-1,-2.933374882E0,4.921405360E0
1.649196607E0,-3.891822577E0,5.302310586E-1,-2.985909224E0,4.933870877E0
1.651196338E0,-3.924809217E0,3.029891551E-1,-3.005456924E0,4.952645873E0
1.653194454E0,-3.992615223E0,-1.441642046E-1,-3.029280663E0,5.013811022E0
1.655233915E0,-4.109290600E0,-5.778785348E-1,-3.058602333E0,5.155119889E0
1.657228954E0,-4.161213875E0,-7.971791625E-1,-3.068376064E0,5.231264398E0
1.659228646E0,-4.260785103E0,-1.270599723E0,-3.059213161E0,5.396989764E0
1.661226761E0,-4.340808392E0,-1.952325344E0,-2.949868202E0,5.599635180E0
1.663226569E0,-4.370130062E0,-2.423913240E0,-2.845410347E0,5.750630591E0
1.665224569E0,-4.484361649E0,-3.037221909E0,-2.671924591E0,6.039320933E0
1.667253377E0,-4.594317436E0,-3.374419689E0,-2.558914423E0,6.248400113E0
1.669248492E0,-4.627914906E0,-3.526525021E0,-2.508823633E0,6.336258448E0
1.671248184E0,-4.665788651E0,-3.754988670E0,-2.400700331E0,6.452355053E0
1.673246415E0,-4.637078285E0,-3.893044233E0,-2.290744781E0,6.473468937E0
1.675246107E0,-4.601037025E0,-3.913202763E0,-2.240653753E0,6.442299808E0
1.677244453E0,-4.499022484E0,-3.825849056E0,-2.174069405E0,6.293242573E0
1.679244030E0,-4.436714172E0,-3.721390963E0,-2.153910875E0,6.178391004E0
1.681241953E0,-4.284608841E0,-3.417180300E0,-2.148413181E0,5.886482253E0
1.683241838E0,-4.103181839E0,-3.017674208E0,-2.187508345E0,5.543252798E0
1.685240069E0,-4.002999783E0,-2.785545588E0,-2.216830015E0,5.357014728E0
1.687271761E0,-3.800803661E0,-2.316401005E0,-2.289522886E0,5.005370829E0
1.689266646E0,-3.580892086E0,-1.864971638E0,-2.383596182E0,4.688543281E0
1.691266453E0,-3.469103813E0,-1.656055689E0,-2.437352419E0,4.551690733E0
1.693271684E0,-3.224146843E0,-1.293201685E0,-2.550362349E0,4.309505954E0
1.695271415E0,-2.972470284E0,-9.841039181E-1,-2.671924591E0,4.116214417E0
1.697269723E0,-2.842355967E0,-8.582656980E-1,-2.735454559E0,4.037117672E0
1.699269338E0,-2.577851295E0,-6.511823535E-1,-2.880229712E0,3.919831495E0
1.701267030E0,-2.309681416E0,-5.149593949E-1,-3.043941498E0,3.855566270E0
1.703266453E0,-2.176512957E0,-4.673119187E-1,-3.126408339E0,3.837970581E0
1.705264184E0,-1.921171188E0,-3.964515328E-1,-3.277902842E0,3.820041831E0
1.707293107E0,-1.686598897E0,-3.390302062E-1,-3.418401957E0,3.826882446E0
1.709288338E0,-1.583362699E0,-3.139847219E-1,-3.486207962E0,3.841779509E0
1.711287800E0,-1.403157473E0,-2.730567753E-1,-3.604715824E0,3.877806992E0
1.713285838E0,-1.251052022E0,-2.516764700E-1,-3.705508471E0,3.919089847E0
1.715285299E0,-1.187522054E0,-2.498438805E-1,-3.750712633E0,3.942141023E0
1.717283607E0,-1.073901057E0,-2.583959997E-1,-3.831346750E0,3.987386349E0
1.719283107E0,-9.877691269E-1,-2.785545588E-1,-3.892433405E0,4.025458769E0
1.721281030E0,-9.584475756E-1,-2.987131178E-1,-3.918700457E0,4.045252100E0
1.723280376E0,-9.089674950E-1,-3.561344445E-1,-3.967569828E0,4.085910424E0
1.725278376E0,-8.863654733E-1,-4.367686510E-1,-4.019493103E0,4.139170860E0
1.727304761E0,-8.833111525E-1,-4.868595898E-1,-4.047593117E0,4.171364392E0
1.729299492E0,-8.918632865E-1,-6.035348773E-1,-4.109290600E0,4.248051754E0
1.731298876E0,-9.156870246E-1,-7.367035151E-1,-4.175263882E0,4.337515796E0
1.733296915E0,-9.309586287E-1,-8.075638413E-1,-4.206418037E0,4.383240357E0
1.735296415E0,-9.651671052E-1,-9.535606503E-1,-4.265061378E0,4.475664645E0
1.737294261E0,-9.822713137E-1,-1.025031924E0,-4.290106773E0,4.518911761E0
1.739293761E0,-1.015258074E0,-1.153313637E0,-4.334699631E0,4.598967513E0
1.741298722E0,-1.045801282E0,-1.277930140E0,-4.384790897E0,4.685423885E0
1.743297992E0,-1.056796908E0,-1.324966669E0,-4.405560017E0,4.720308829E0
1.745296222E0,-1.078177214E0,-1.404379249E0,-4.451375008E0,4.790562246E0
1.747331146E0,-1.081842303E0,-1.470352650E0,-4.491692066E0,4.848465458E0
1.749326299E0,-1.078177214E0,-1.494787216E0,-4.510629177E0,4.872641019E0
1.751326107E0,-1.059851170E0,-1.527163148E0,-4.543615818E0,4.909170651E0
1.753324415E0,-1.029307961E0,-1.522887111E0,-4.566217899E0,4.922296815E0
1.755324261E0,-1.006705880E0,-1.511280656E0,-4.578434944E0,4.925392623E0
1.757322376E0,-9.584475756E-1,-1.472185254E0,-4.586376190E0,4.911292878E0
1.759322222E0,-9.071348906E-1,-1.407433510E0,-4.583932877E0,4.880184772E0
1.761320415E0,-8.808676600E-1,-1.368338108E0,-4.581489563E0,4.861925918E0
1.763320145E0,-8.429940343E-1,-1.285871387E0,-4.572326183E0,4.823926916E0
1.765318184E0,-8.136724830E-1,-1.210734963E0,-4.561941624E0,4.789494069E0
1.767333799E0,-8.032878041E-1,-1.185078621E0,-4.561330795E0,4.780734385E0
1.769329069E0,-7.910705209E-1,-1.161254883E0,-4.553389549E0,4.765255697E0
1.771328799E0,-7.831292152E-1,-1.184467673E0,-4.542394161E0,4.759159564E0
1.773326761E0,-7.812966704E-1,-1.211345792E0,-4.536285400E0,4.759797091E0
1.775326453E0,-7.757988572E-1,-1.293812633E0,-4.516737461E0,4.762009270E0
1.777324761E0,-7.819074988E-1,-1.411098719E0,-4.490470409E0,4.771467639E0
1.779324876E0,-7.788531780E-1,-1.487456918E0,-4.478252888E0,4.782665500E0
1.781323415E0,-7.733554244E-1,-1.673159957E0,-4.445266247E0,4.812269201E0
1.783322915E0,-7.568620443E-1,-1.899180055E0,-4.403116703E0,4.854602119E0
1.785321222E0,-7.422012687E-1,-2.025629044E0,-4.375016689E0,4.877992085E0
1.787340607E0,-7.067710757E-1,-2.277305603E0,-4.310875893E0,4.926387837E0
1.789336722E0,-6.817256212E-1,-2.397646189E0,-4.277278423E0,4.950612869E0
1.791336222E0,-6.181956530E-1,-2.609616280E0,-4.202753067E0,4.985518663E0
1.793334645E0,-5.314527750E-1,-2.742174149E0,-4.125783920E0,4.982374341E0
1.795334415E0,-4.807509482E-1,-2.778215170E0,-4.088521004E0,4.966447926E0
1.797333030E0,-3.536909819E-1,-2.791654110E0,-4.017660618E0,4.905102121E0
1.799333107E0,-1.942551434E-1,-2.743395805E0,-3.948632956E0,4.812032608E0
1.801331453E0,-1.056796908E-1,-2.698802710E0,-3.915646315E0,4.756783611E0
1.803331184E0,9.285151958E-2,-2.596788168E0,-3.852116346E0,4.646582673E0
1.805329607E0,3.127630055E-1,-2.500271559E0,-3.783699274E0,4.545938711E0
1.807359107E0,4.288274050E-1,-2.456900120E0,-3.752545118E0,4.505756985E0
1.809354261E0,6.640105247E-1,-2.389704943E0,-3.681073904E0,4.438682775E0
1.811353915E0,8.991936445E-1,-2.351831198E0,-3.607770205E0,4.399507364E0
1.813352338E0,1.015258074E0,-2.340224743E0,-3.571729183E0,4.389151417E0
1.815392645E0,1.237612963E0,-2.321287870E0,-3.502090454E0,4.380034335E0
1.817387530E0,1.430646420E0,-2.294409752E0,-3.439782143E0,4.375290445E0
1.819387299E0,1.521665335E0,-2.277916431E0,-3.432451725E0,4.391593504E0
1.821385184E0,1.678657651E0,-2.230879784E0,-3.432451725E0,4.424527202E0
1.823384722E0,1.816102386E0,-2.173458576E0,-3.441614866E0,4.457225925E0
1.825382876E0,1.869247675E0,-2.154521704E0,-3.465438604E0,4.488353302E0
1.827403068E0,1.982868552E0,-2.108706713E0,-3.528968573E0,4.564211967E0
1.829398299E0,2.039068222E0,-2.061059237E0,-3.592498541E0,4.616471613E0
1.831398491E0,2.053729057E0,-2.040900707E0,-3.634648323E0,4.646907269E0
1.833396722E0,2.100765467E0,-1.998751044E0,-3.716504097E0,4.713875686E0
1.835396568E0,2.137417555E0,-1.960266590E0,-3.806912184E0,4.785789306E0
1.837402222E0,2.152078152E0,-1.945605755E0,-3.853948832E0,4.823872274E0
1.839402222E0,2.174680233E0,-1.903456092E0,-3.962071896E0,4.904119994E0
1.841400914E0,2.210110426E0,-1.883297563E0,-4.060421467E0,4.991835363E0
1.843400837E0,2.216219187E0,-1.865582466E0,-4.105625153E0,5.024757040E0
1.845399337E0,2.261423111E0,-1.827097893E0,-4.205807209E0,5.112840255E0
1.847414337E0,2.274862289E0,-1.822211027E0,-4.253454685E0,5.156290161E0
1.849409799E0,2.365881205E0,-1.789224267E0,-4.319427967E0,5.239864055E0
1.851410068E0,2.483167171E0,-1.739744186E0,-4.360356331E0,5.310888473E0
1.853408991E0,2.529592991E0,-1.699427128E0,-4.374405861E0,5.331258754E0
1.855408953E0,2.663983345E0,-1.626123309E0,-4.392732143E0,5.388615774E0
1.857407491E0,2.835025549E0,-1.586417079E0,-4.401895046E0,5.470902029E0
1.859407530E0,2.935818434E0,-1.550986886E0,-4.398840427E0,5.511296336E0
1.861405953E0,3.138014793E0,-1.517389297E0,-4.359134197E0,5.581367043E0
1.863405607E0,3.329826355E0,-1.508837104E0,-4.312708855E0,5.653652857E0
1.865404030E0,3.455053806E0,-1.528384805E0,-4.290106773E0,5.716500069E0
1.867447876E0,3.618765831E0,-1.593747377E0,-4.233907223E0,5.793225976E0
1.869443376E0,3.793473244E0,-1.711644411E0,-4.175263882E0,5.895167031E0
1.871443030E0,3.845396757E0,-1.794722080E0,-4.131892681E0,5.922891244E0
1.873440760E0,3.982230425E0,-1.993864179E0,-4.057366848E0,6.024606150E0
1.875440876E0,4.053701878E0,-2.222938538E0,-3.979787111E0,6.100218038E0
1.877439107E0,4.096462250E0,-2.349387646E0,-3.938858986E0,6.149409352E0
1.879438453E0,4.142277241E0,-2.604118586E0,-3.841120720E0,6.220458402E0
1.881436837E0,4.178929329E0,-2.866179705E0,-3.766595125E0,6.313927088E0
1.883437030E0,4.185037613E0,-2.991407156E0,-3.732386589E0,6.355609038E0
1.885442683E0,4.197255135E0,-3.216816425E0,-3.685349941E0,6.445670079E0
1.887457376E0,4.205196381E0,-3.447112560E0,-3.662748098E0,6.556064767E0
1.889452530E0,4.205196381E0,-3.562566042E0,-3.657250166E0,6.614456303E0
1.891452837E0,4.177096367E0,-3.797138453E0,-3.646865606E0,6.720567181E0
1.893451222E0,4.115399361E0,-4.021936893E0,-3.647476435E0,6.812970910E0
1.895451068E0,4.062253952E0,-4.095240593E0,-3.659082890E0,6.830943586E0
1.897449530E0,3.936415672E0,-4.148386002E0,-3.706730366E0,6.815007320E0
1.899449683E0,3.874107361E0,-4.139833927E0,-3.738495350E0,6.791412244E0
1.901448530E0,3.745214701E0,-4.034153938E0,-3.799581766E0,6.688636090E0
1.903448299E0,3.637091637E0,-3.871052980E0,-3.839898825E0,6.554258900E0
1.905446799E0,3.592498541E0,-3.784310102E0,-3.845396757E0,6.481830369E0
1.907466337E0,3.512475252E0,-3.608381033E0,-3.824627399E0,6.323422398E0
1.909462030E0,3.450166941E0,-3.462384224E0,-3.757432222E0,6.165229382E0
1.911462222E0,3.429397583E0,-3.419623613E0,-3.709173679E0,6.100210064E0
1.913460606E0,3.393356323E0,-3.363424063E0,-3.590054989E0,5.976285082E0
1.915460529E0,3.383582592E0,-3.373808861E0,-3.461773396E0,5.900431546E0
1.917459299E0,3.382971764E0,-3.392745495E0,-3.403741121E0,5.877131406E0
1.919459337E0,3.402519464E0,-3.453832150E0,-3.299283266E0,5.864415171E0
1.921457914E0,3.439171314E0,-3.509420872E0,-3.222924948E0,5.876323630E0
1.923457683E0,3.458108187E0,-3.522248983E0,-3.199712038E0,5.882423587E0
1.925456683E0,3.495370865E0,-3.525303364E0,-3.161838531E0,5.885796819E0
1.927485837E0,3.535687923E0,-3.519194603E0,-3.123353958E0,5.885674107E0
1.929481453E0,3.552792311E0,-3.517972946E0,-3.094643354E0,5.880075199E0
1.931481722E0,3.587000608E0,-3.563176870E0,-3.030502558E0,5.894637268E0
1.933488260E0,3.604715824E0,-3.646254539E0,-2.959642172E0,5.920188352E0
1.935488876E0,3.612046242E0,-3.702454329E0,-2.917492390E0,5.938586360E0
1.937487568E0,3.640146017E0,-3.848451138E0,-2.837469101E0,6.009365198E0
1.939487645E0,3.708562851E0,-4.144720554E0,-2.737898111E0,6.199050973E0
1.941486029E0,3.748879910E0,-4.282165527E0,-2.668259382E0,6.285749781E0
1.943486068E0,3.860668421E0,-4.674340725E0,-2.519819021E0,6.565341558E0
1.945484876E0,3.981619596E0,-4.906469822E0,-2.412917614E0,6.763794212E0
1.947504260E0,3.981008768E0,-4.843550682E0,-2.398257017E0,6.712678358E0
1.949499645E0,4.057366848E0,-4.681060314E0,-2.450180531E0,6.661676669E0
1.951499991E0,4.106235981E0,-4.571715355E0,-2.517375708E0,6.640702950E0
1.953498529E0,4.118453503E0,-4.529565811E0,-2.545475483E0,6.630088320E0
1.955498183E0,4.087910175E0,-4.524678707E0,-2.605951071E0,6.631342849E0
1.957497183E0,4.039651871E0,-4.547891617E0,-2.655431271E0,6.637275091E0
1.959497375E0,3.891822577E0,-4.679227829E0,-2.773939133E0,6.688512118E0
1.961495952E0,3.682906628E0,-4.856989384E0,-2.970026731E0,6.780501891E0
1.963496068E0,3.563176870E0,-4.940067291E0,-3.097697735E0,6.833463654E0
1.965494722E0,3.325550318E0,-5.065294743E0,-3.398854256E0,6.947568351E0
1.967510645E0,3.079371691E0,-5.127603054E0,-3.735440969E0,7.051833969E0
1.969506568E0,2.976135492E0,-5.125159264E0,-3.905872345E0,7.097920732E0
1.971506875E0,2.784323692E0,-5.024366856E0,-4.223522186E0,7.129856968E0
1.973505991E0,2.604729414E0,-4.829500675E0,-4.511240005E0,7.103518739E0
1.975547414E0,2.524095297E0,-4.699997425E0,-4.634634495E0,7.066885436E0
1.977542875E0,2.399478674E0,-4.432438374E0,-4.838663578E0,6.986892948E0
1.979543068E0,2.309681416E0,-4.155716419E0,-4.993823528E0,6.895134562E0
1.981548798E0,2.282192469E0,-4.002999783E0,-5.051244736E0,6.837213109E0
1.983548837E0,2.295020819E0,-3.681684732E0,-5.139209270E0,6.725577667E0
1.985547645E0,2.369546175E0,-3.412293196E0,-5.178304672E0,6.638774978E0
1.987586491E0,2.415971994E0,-3.296839714E0,-5.177083015E0,6.596079239E0
1.989582529E0,2.528982162E0,-3.102584600E0,-5.133711338E0,6.509744548E0
1.991582491E0,2.624887943E0,-2.991407156E0,-5.050633907E0,6.430198780E0
1.993581029E0,2.660928965E0,-2.970637798E0,-4.997488499E0,6.393756578E0
1.995580837E0,2.707965612E0,-2.976746321E0,-4.872871876E0,6.319729166E0
1.997579645E0,2.728124142E0,-3.037221909E0,-4.728707790E0,6.247243842E0
1.999580183E0,2.729956865E0,-3.081204414E0,-4.653571606E0,6.213067988E0
2.001578875E0,2.714685202E0,-3.166114569E0,-4.472144604E0,6.115053112E0
2.003578875E0,2.697580814E0,-3.235753298E0,-4.280332565E0,6.005688014E0
2.005577529E0,2.692693949E0,-3.258355141E0,-4.178929329E0,5.943982609E0
2.007593914E0,2.682309389E0,-3.301726580E0,-3.966347933E0,5.816192740E0
2.009589952E0,2.694526672E0,-3.334713459E0,-3.746436596E0,5.693555568E0
2.011590029E0,2.689028740E0,-3.362202406E0,-3.638924360E0,5.637113719E0
2.013588760E0,2.722626448E0,-3.389080286E0,-3.432451725E0,5.538978679E0
2.015589260E0,2.709187269E0,-3.445890903E0,-3.329215527E0,5.504319740E0
2.017588029E0,2.687807083E0,-3.568674803E0,-3.152064562E0,5.467655601E0
2.019587375E0,2.688417912E0,-3.657250166E0,-3.025615454E0,5.455036069E0
2.021585414E0,2.708576441E0,-3.698789120E0,-2.978579044E0,5.467116279E0
2.023584991E0,2.786156416E0,-3.752545118E0,-2.914438009E0,5.508013376E0
2.025582683E0,2.905885935E0,-3.717114925E0,-2.857627630E0,5.516081227E0
2.027601914E0,2.985298395E0,-3.728110552E0,-2.833193064E0,5.553179065E0
2.029597644E0,3.144123316E0,-3.725056171E0,-2.789821625E0,5.616463265E0
2.031597298E0,3.450166941E0,-3.536298990E0,-2.724458933E0,5.641962331E0
2.033595721E0,3.734219313E0,-3.194214344E0,-2.682309389E0,5.598408953E0
2.035595837E0,3.877161741E0,-3.252246618E0,-2.615114212E0,5.696342122E0
2.037594221E0,3.921754837E0,-3.441614866E0,-2.504547596E0,5.787713931E0
2.039594067E0,3.889379025E0,-3.566231251E0,-2.453845739E0,5.819504570E0
2.041592491E0,3.916867971E0,-3.689625978E0,-2.347555161E0,5.870792945E0
2.043592337E0,3.977954388E0,-3.753156185E0,-2.247984171E0,5.913014062E0
2.045590798E0,4.024380207E0,-3.765984297E0,-2.216830015E0,5.940758293E0
2.047625760E0,4.123340607E0,-3.806912184E0,-2.150856495E0,6.010050066E0
2.049622029E0,4.240626335E0,-3.867387772E0,-2.111761093E0,6.115483203E0
2.051622106E0,4.295604229E0,-3.892433405E0,-2.099543810E0,6.165333544E0
2.053621491E0,4.411668777E0,-4.035375595E0,-2.064113617E0,6.325159494E0
2.055621837E0,4.499022484E0,-4.276667595E0,-2.062891960E0,6.541147626E0
2.057621067E0,4.522235394E0,-4.396397114E0,-2.057394028E0,6.634138280E0
2.059621298E0,4.513072491E0,-4.671286583E0,-2.054950714E0,6.812603326E0
2.061620337E0,4.379292965E0,-4.945565224E0,-2.068389654E0,6.922070356E0
2.063620567E0,4.302934647E0,-5.075068474E0,-2.030516148E0,6.956620042E0
2.065619260E0,4.109901428E0,-5.321857929E0,-1.908953905E0,6.989818780E0
2.067637721E0,3.880216122E0,-5.502063274E0,-1.751350641E0,6.956723833E0
2.069633606E0,3.721390963E0,-5.571091175E0,-1.663386106E0,6.903090679E0
2.071634183E0,3.406184673E0,-5.627290726E0,-1.486235142E0,6.743692597E0
2.073633067E0,3.280957222E0,-5.608964443E0,-1.379333735E0,6.642870160E0
2.075633144E0,3.003624439E0,-5.515502453E0,-1.202793717E0,6.394469470E0
2.077639221E0,2.757445812E0,-5.301088810E0,-1.056185961E0,6.067996272E0
2.079639413E0,2.631607533E0,-5.128213882E0,-9.798278809E-1,5.846708348E0
2.081638375E0,2.426356792E0,-4.750699043E0,-8.582656980E-1,5.403051794E0
2.083638644E0,2.241264582E0,-4.284608841E0,-7.489207983E-1,4.893058574E0
2.085637875E0,2.168571711E0,-4.041484356E0,-7.061602473E-1,4.640577697E0
2.087654298E0,2.060448408E0,-3.558900833E0,-6.572909951E-1,4.164523290E0
2.089649952E0,1.988366365E0,-3.095865011E0,-6.817256212E-1,3.742022287E0
2.091650029E0,1.959655762E0,-2.880840540E0,-7.312057018E-1,3.560077906E0
2.093648875E0,1.917505980E0,-2.497217178E0,-8.484918475E-1,3.260806838E0
2.095648836E0,1.873523712E0,-2.196671486E0,-9.938777685E-1,3.053399701E0
2.097647606E0,1.856419444E0,-2.087326527E0,-1.076955438E0,2.993836702E0
2.099647798E0,1.826487064E0,-1.943162322E0,-1.239445567E0,2.940775428E0
2.101646567E0,1.788613439E0,-1.897347450E0,-1.416596532E0,2.967458696E0
2.103646798E0,1.770898342E0,-1.905899525E0,-1.503339410E0,3.004756782E0
2.105645336E0,1.730581284E0,-1.976759911E0,-1.671327353E0,3.113812204E0
2.107679452E0,1.693929315E0,-2.081828833E0,-1.831374049E0,3.249205860E0
2.109675106E0,1.676214218E0,-2.142304420E0,-1.897347450E0,3.316487552E0
2.111674913E0,1.650557876E0,-2.271197081E0,-2.025018215E0,3.461701352E0
2.113672606E0,1.650557876E0,-2.397646189E0,-2.125811100E0,3.604458542E0
2.115672183E0,1.658499122E0,-2.461786985E0,-2.170404196E0,3.677182192E0
2.117670567E0,1.684766293E0,-2.583960056E0,-2.254092693E0,3.820500085E0
2.119670029E0,1.717753053E0,-2.691472292E0,-2.309070587E0,3.940368717E0
2.121668490E0,1.741576791E0,-2.734232903E0,-2.301129341E0,3.975464190E0
2.123668298E0,1.965764403E0,-2.447126150E0,-2.155132532E0,3.807525747E0
2.125673067E0,2.229047298E0,-2.143526077E0,-2.103819847E0,3.740242486E0
2.127689336E0,2.237599373E0,-2.091602564E0,-2.095878601E0,3.711382404E0
2.129684183E0,2.302350998E0,-1.993253350E0,-2.077552795E0,3.686475913E0
2.131684298E0,2.307848930E0,-1.986533761E0,-2.067778826E0,3.680786919E0
2.133682798E0,2.276694775E0,-2.034792185E0,-1.992642403E0,3.646140710E0
2.135723221E0,2.202780008E0,-2.105041742E0,-1.883297563E0,3.581933865E0
2.137718529E0,2.138028383E0,-2.149634838E0,-1.836260915E0,3.544566187E0
2.139718567E0,1.987755537E0,-2.277916431E0,-1.784337401E0,3.510546297E0
2.141717144E0,1.859473825E0,-2.395202637E0,-1.800830722E0,3.526702406E0
2.143716567E0,1.827097893E0,-2.397646189E0,-1.820989251E0,3.521788723E0
2.145715375E0,1.785559058E0,-2.329839945E0,-1.870469332E0,3.480665287E0
2.147738259E0,1.713477015E0,-2.241264582E0,-1.937664509E0,3.422544982E0
2.149733336E0,1.676825047E0,-2.210721254E0,-1.959655762E0,3.396951781E0
2.151733721E0,1.600466967E0,-2.213164806E0,-2.005470514E0,3.388436949E0
2.153732106E0,1.526552200E0,-2.273029566E0,-2.042122602E0,3.415741464E0
2.155732452E0,1.500285029E0,-2.293798923E0,-2.053729057E0,3.424933826E0
2.157731182E0,1.467909217E0,-2.312124968E0,-2.092824221E0,3.446823545E0
2.159731182E0,1.436755061E0,-2.313346624E0,-2.136806726E0,3.461470886E0
2.161729759E0,1.418429136E0,-2.315179348E0,-2.163073778E0,3.471438434E0
2.163729990E0,1.392161846E0,-2.335948706E0,-2.214386463E0,3.506890128E0
2.165728913E0,1.378111959E0,-2.411085129E0,-2.241264582E0,3.568724001E0
2.167759182E0,1.365283847E0,-2.483167171E0,-2.246762276E0,3.616360036E0
2.169754682E0,1.350012183E0,-2.696359158E0,-2.208277941E0,3.737562985E0
2.171754490E0,1.336573124E0,-2.973081112E0,-2.131308794E0,3.894626579E0
2.173760144E0,1.316414595E0,-3.117245436E0,-2.088548183E0,3.976455709E0
2.175759875E0,1.266934514E0,-3.393967390E0,-2.017076969E0,4.146412571E0
2.177758452E0,1.215621829E0,-3.659082890E0,-1.985312104E0,4.336829277E0
2.179758259E0,1.192408919E0,-3.785531998E0,-1.977370739E0,4.434195144E0
2.181757067E0,1.137431145E0,-4.055534363E0,-1.979814291E0,4.654113579E0
2.183756913E0,1.088561893E0,-4.196033478E0,-1.983479500E0,4.767164237E0
2.185755067E0,9.737191796E-1,-4.470922947E0,-1.990809798E0,4.990050570E0
2.187782567E0,8.124507666E-1,-4.775133610E0,-1.975538254E0,5.231130722E0
2.189777721E0,7.269296646E-1,-4.946176052E0,-1.968818665E0,5.373018817E0
2.191777836E0,5.448917747E-1,-5.304142952E0,-1.940718889E0,5.674260243E0
2.193776413E0,3.640756905E-1,-5.717698574E0,-1.913229942E0,6.040287816E0
2.195776567E0,2.706133127E-1,-5.930890560E0,-1.893682241E0,6.231751506E0
2.197775144E0,1.044579595E-1,-6.308405399E0,-1.825265408E0,6.567989339E0
2.199775182E0,-4.825835302E-2,-6.605896950E0,-1.737911582E0,6.830852073E0
2.201774182E0,-1.203404516E-1,-6.737843513E0,-1.692707539E0,6.948257037E0
2.203773913E0,-2.626720667E-1,-6.954700947E0,-1.600466967E0,7.141313352E0
2.205772259E0,-3.976732790E-1,-7.130019188E0,-1.483791709E0,7.293624304E0
2.207808798E0,-4.770857692E-1,-7.191105843E0,-1.393383622E0,7.340376829E0
2.209804028E0,-5.858197808E-1,-7.347486973E0,-1.210124016E0,7.469481225E0
2.211803721E0,-6.676757336E-1,-7.593666077E0,-1.036638379E0,7.693125145E0
2.213802605E0,-6.853908300E-1,-7.770205975E0,-9.700540304E-1,7.860462219E0
2.215802836E0,-7.098253965E-1,-8.134892464E0,-8.038986921E-1,8.205277606E0
2.217801336E0,-7.721336484E-1,-8.213693619E0,-4.202753007E-1,8.260604370E0
2.219801182E0,-7.965682745E-1,-8.256454468E0,-2.162462920E-1,8.297609526E0
2.221806221E0,-8.289441466E-1,-8.277224541E0,1.899790913E-1,8.320798432E0
2.223806221E0,-8.100073338E-1,-8.526456833E0,5.962044597E-1,8.585571487E0
2.225804759E0,-7.965682745E-1,-8.715214729E0,7.886270285E-1,8.787002981E0
2.227849144E0,-7.788531780E-1,-9.191078186E0,1.137431145E0,9.293884016E0
2.229844298E0,-6.908885837E-1,-9.880744934E0,1.451415777E0,1.001064709E1
2.231844298E0,-6.072000265E-1,-1.029307938E1,1.586417079E0,1.043230052E1
2.233843336E0,-3.762930036E-1,-1.111591530E1,1.756237626E0,1.126008614E1
2.235843490E0,-1.545489132E-1,-1.180985737E1,1.882686734E0,1.195998017E1
2.237841990E0,-8.918632567E-2,-1.195768738E1,1.933999419E0,1.211340561E1
2.239841990E0,5.192354694E-2,-1.223807430E1,1.951714516E0,1.239283455E1
2.241840490E0,1.093448773E-1,-1.234070015E1,1.936442852E0,1.249218345E1
2.243840374E0,2.571742535E-1,-1.247081375E1,1.843591332E0,1.260897154E1
2.245838913E0,3.384193480E-1,-1.251296329E1,1.671938181E0,1.262870363E1
2.247856144E0,3.561344445E-1,-1.251662922E1,1.570534587E0,1.261980260E1
2.249851528E0,2.981022298E-1,-1.245432091E1,1.351844788E0,1.253101985E1
2.251851836E0,1.563815027E-1,-1.230465889E1,1.158200502E0,1.236003697E1
2.253850567E0,8.124507964E-2,-1.219958973E1,1.073290229E0,1.224698094E1
2.255850951E0,3.726277873E-2,-1.194424820E1,9.120218158E-1,1.197907498E1
2.257849490E0,1.240056455E-1,-1.159422207E1,7.990117669E-1,1.162238283E1
2.259849567E0,2.101376504E-1,-1.138408470E1,7.629706860E-1,1.141155846E1
2.261848451E0,6.096435189E-1,-1.082208824E1,7.122688890E-1,1.086262335E1
2.263848220E0,1.419650793E0,-9.949772835E0,6.603453159E-1,1.007221146E1
2.265846720E0,1.615127683E0,-9.454972267E0,6.224716902E-1,9.612107418E0
2.267864913E0,1.820989251E0,-8.432994843E0,5.619960427E-1,8.645648814E0
2.269861220E0,1.988977194E0,-7.368256569E0,4.984660447E-1,7.648248397E0
2.271860951E0,2.071444035E0,-6.822753906E0,4.697553813E-1,7.145734488E0
2.273859297E0,2.124589205E0,-5.744576931E0,4.037819207E-1,6.138166114E0
2.275859413E0,2.178345442E0,-4.629137039E0,3.365867436E-1,5.127122900E0
2.277858451E0,2.235155821E0,-4.048814774E0,3.029891551E-1,4.634719521E0
2.279858643E0,2.266921043E0,-2.890003443E0,2.382374406E-1,3.680734708E0
2.281857259E0,2.080606937E0,-1.841758728E0,1.692096740E-1,2.783816149E0
2.283857336E0,1.949270964E0,-1.367727280E0,1.521054506E-1,2.386099593E0
2.285855605E0,1.761124492E0,-4.459316432E-1,1.759291887E-1,1.825202889E0
2.287886259E0,1.596801758E0,3.481931984E-1,2.510656118E-1,1.653495781E0
2.289880759E0,1.473407030E0,6.572909951E-1,2.987131178E-1,1.640789217E0
2.291880528E0,1.240667343E0,1.089172721E0,4.263839424E-1,1.705097047E0
2.293878567E0,1.080009699E0,1.307251573E0,5.632177591E-1,1.786768555E0
2.295918913E0,1.050688267E0,1.320079803E0,6.322455406E-1,1.801746637E0
2.297913951E0,1.142928839E0,6.713408828E-1,7.739662528E-1,1.534929533E0
2.299914336E0,1.518610954E0,-9.957103431E-2,8.570439219E-1,1.746601817E0
2.301912605E0,1.791056871E0,-3.781255782E-1,1.086118460E0,2.128501111E0
2.303913105E0,2.321898699E0,-6.579018831E-1,1.350012183E0,2.765245260E0
2.305911682E0,2.711630821E0,-5.222898126E-1,1.577254057E0,3.180166461E0
2.307931797E0,2.844799519E0,-3.585779071E-1,1.645671010E0,3.306008997E0
2.309927413E0,3.024393797E0,2.687807009E-2,1.698816299E0,3.468956196E0
2.311927566E0,3.087312937E0,1.905899495E-1,1.701259732E0,3.530171437E0
2.313926451E0,3.164282084E0,3.799581826E-1,1.708590150E0,3.616120798E0
2.315926720E0,3.202155590E0,3.384193480E-1,1.775174379E0,3.676897082E0
2.317932720E0,3.217427254E0,2.596177161E-1,1.826487064E0,3.708813083E0
2.319933413E0,3.251635790E0,7.819075137E-2,1.949270964E0,3.791952847E0
2.321931489E0,3.313333035E0,-4.459316283E-2,2.069000483E0,3.906523691E0
2.323930874E0,3.349985123E0,-1.093448773E-1,2.124589205E0,3.968404706E0
2.325929605E0,3.416569233E0,-2.791654170E-1,2.252871037E0,4.101988123E0
2.327946297E0,3.469103813E0,-5.308418870E-1,2.376876593E0,4.238633826E0
2.329941913E0,3.481321096E0,-6.743952036E-1,2.425745964E0,4.296352982E0
2.331942182E0,3.502701283E0,-9.798278809E-1,2.509434462E0,4.418850560E0
2.333940797E0,3.502701283E0,-1.316414595E0,2.579684019E0,4.544956908E0
2.335940566E0,3.499036074E0,-1.489289522E0,2.609005451E0,4.611740037E0
2.337938682E0,3.480099201E0,-1.856419444E0,2.665815830E0,4.760667773E0
2.339938912E0,3.448334217E0,-2.235766888E0,2.708576441E0,4.921996423E0
2.341937605E0,3.442836523E0,-2.409252644E0,2.726291656E0,5.009020645E0
2.343937874E0,3.451388597E0,-2.703689575E0,2.750726223E0,5.175762294E0
2.345936759E0,3.458719015E0,-2.995072365E0,2.775160789E0,5.351141290E0
2.347970643E0,3.472157955E0,-3.138625622E0,2.789210796E0,5.448536365E0
2.349966028E0,3.477045059E0,-3.340211153E0,2.808758497E0,5.579962113E0
2.351966297E0,3.465438604E0,-3.511864185E0,2.820364952E0,5.683037325E0
2.353964682E0,3.462384224E0,-3.563787937E0,2.824029922E0,5.715228253E0
2.355964836E0,3.495370865E0,-3.566842079E0,2.807536602E0,5.729069878E0
2.357963335E0,3.496592760E0,-3.568063974E0,2.791654110E0,5.722811732E0
2.359963489E0,3.409849882E0,-3.690847874E0,2.769052267E0,5.737341257E0
2.361961643E0,3.297450542E0,-3.846618414E0,2.766608715E0,5.772675037E0
2.363961951E0,3.223536015E0,-3.952908993E0,2.762332678E0,5.800616844E0
2.365967182E0,3.049439192E0,-4.183205128E0,2.753169775E0,5.863295007E0
2.367983566E0,2.850297213E0,-4.451375008E0,2.735454559E0,5.951608632E0
2.369979105E0,2.742174149E0,-4.597372055E0,2.720793724E0,6.004836997E0
2.371979451E0,2.529592991E0,-4.962058544E0,2.695748329E0,6.187723713E0
2.373978105E0,2.393369913E0,-5.376224995E0,2.715906858E0,6.481370596E0
2.375978220E0,2.383596182E0,-5.583919048E0,2.744617462E0,6.662927863E0
2.377977028E0,2.516764879E0,-5.956546783E0,2.828306198E0,7.057894232E0
2.379977489E0,2.789821625E0,-6.312070370E0,2.973691940E0,7.514531310E0
2.381976105E0,2.968805075E0,-6.506325722E0,3.046385050E0,7.773450961E0
2.383976874E0,3.358537197E0,-6.918659687E0,3.208875179E0,8.333336900E0
2.385975912E0,3.787975311E0,-7.411628246E0,3.403130293E0,8.992345968E0
2.387995951E0,4.023158550E0,-7.660250187E0,3.526525021E0,9.343533398E0
2.389992220E0,4.599815369E0,-8.200865746E0,3.830125093E0,1.015294827E1
2.391992720E0,5.117218018E0,-8.715214729E0,4.148386002E0,1.092474231E1
2.393991528E0,5.358510017E0,-8.951619148E0,4.299269676E0,1.128400792E1
2.395991758E0,5.721974850E0,-9.367618561E0,4.508185387E0,1.186663428E1
2.397990335E0,5.985257626E0,-9.703594208E0,4.640743256E0,1.230932766E1
2.399990528E0,6.099489689E0,-9.861808777E0,4.659679890E0,1.249686615E1
2.401989451E0,6.279083729E0,-1.018312359E1,4.621806622E0,1.282513138E1
2.403989605E0,6.395759106E0,-1.045862389E1,4.500854969E0,1.305933550E1
2.405988028E0,6.412252426E0,-1.054109097E1,4.418388367E0,1.310548495E1
2.408028989E0,6.349333286E0,-1.058873844E1,4.219246387E0,1.304750762E1
2.410024258E0,6.114760876E0,-1.032240105E1,3.866166115E0,1.260513801E1
2.412024028E0,5.986479282E0,-1.008660698E1,3.659082890E0,1.228684102E1
2.414028874E0,5.720142365E0,-9.338908195E0,3.192992687E0,1.140747287E1
2.416029105E0,5.618127823E0,-8.739648819E0,2.965139866E0,1.080448408E1
2.418027335E0,5.548489094E0,-7.065878391E0,2.515542984E0,9.329540459E0
2.420027220E0,5.530774117E0,-4.897917747E0,2.090380907E0,7.677809123E0
2.422025143E0,5.494122028E0,-3.759264708E0,1.926058173E0,6.930162198E0
2.424025066E0,5.371949196E0,-1.693929315E0,1.681712031E0,5.878383285E0
2.426023258E0,5.263825893E0,-2.083050460E-1,1.459357023E0,5.466349509E0
2.428041874E0,5.148372173E0,2.223549485E-1,1.336573124E0,5.323683450E0
2.430037297E0,5.022533894E0,9.737191796E-1,1.065348983E0,5.225796036E0
2.432036989E0,5.104390144E0,1.189965487E0,8.081747293E-1,5.303203089E0
2.434035181E0,5.153259277E0,1.095281363E0,7.281513810E-1,5.318451549E0
2.436034874E0,5.230839252E0,7.428121567E-1,6.750060916E-1,5.326263457E0
2.438032643E0,5.358510017E0,2.553416789E-1,7.073819637E-1,5.411027465E0
2.440032066E0,5.409822464E0,2.138028294E-2,7.531968355E-1,5.462045558E0
2.442030143E0,5.404935837E0,-3.720169365E-1,8.643743396E-1,5.486243797E0
2.444030181E0,5.298645020E0,-6.078109145E-1,9.663888216E-1,5.420238049E0
2.446028143E0,5.210680485E0,-7.098253965E-1,1.007316828E0,5.354412237E0
2.448044066E0,5.009095192E0,-8.985827565E-1,1.049466491E0,5.196139483E0
2.450039374E0,4.823391914E0,-1.084896684E0,1.051299095E0,5.054437670E0
2.452039066E0,4.723209858E0,-1.208902359E0,1.028697014E0,4.982807825E0
2.454037989E0,4.496579170E0,-1.545489073E0,9.602801800E-1,4.850762696E0
2.456078527E0,4.400062561E0,-1.829541445E0,8.643743396E-1,4.843027507E0
2.458074258E0,4.412279606E0,-1.930945039E0,7.965682745E-1,4.881729312E0
2.460074681E0,4.486194134E0,-2.130087137E0,6.365215778E-1,5.006832206E0
2.462080450E0,4.674951553E0,-2.157576084E0,4.569272101E-1,5.169051079E0
2.464080758E0,4.777576923E0,-2.108706713E0,3.634648323E-1,5.234882228E0
2.466079797E0,4.904636860E0,-1.989588141E0,1.863138974E-1,5.296096352E0
2.468115720E0,4.972443104E0,-2.167960644E0,-1.832595654E-2,5.424534968E0
2.470111758E0,5.040860176E0,-1.981035948E0,-1.062905490E-1,5.417201531E0
2.472111989E0,5.182580948E0,-1.459967971E0,-2.443460971E-1,5.389838288E0
2.474110566E0,5.277875900E0,-1.109942198E0,-2.956587672E-1,5.401422017E0
2.476110912E0,5.522222042E0,-3.323107064E-1,-3.549126983E-1,5.543584554E0
2.478109720E0,5.725028992E0,4.233296216E-1,-3.732386529E-1,5.752779504E0
2.480110143E0,5.784283161E0,7.611380816E-1,-3.671300113E-1,5.845686214E0
2.482109104E0,5.824600220E0,1.310305953E0,-3.243694305E-1,5.978970224E0
2.484109527E0,5.745798588E0,1.629177570E0,-2.614503205E-1,5.978024526E0
2.486108681E0,5.673716545E0,1.713477015E0,-2.162462920E-1,5.930752513E0
2.488126489E0,5.463578701E0,1.659109950E0,-1.178969890E-1,5.711150300E0
2.490122412E0,5.218621731E0,1.545489073E0,3.054326167E-3,5.442660983E0
2.492122643E0,5.082398891E0,1.447750688E0,7.452555746E-2,5.285103084E0
2.494121373E0,4.775133610E0,1.197295904E0,2.125810981E-1,4.927535814E0
2.496121681E0,4.439157963E0,8.851437569E-1,3.634648323E-1,4.541113253E0
2.498120181E0,4.218635559E0,7.226535678E-1,4.331034720E-1,4.301940583E0
2.500120566E0,3.831346750E0,3.683517575E-1,5.784893632E-1,3.892242398E0
2.502119566E0,3.436727762E0,5.803219974E-2,7.348709106E-1,3.514896969E0
2.504119989E0,3.251024723E0,-6.108652428E-2,8.093964458E-1,3.350823170E0
2.506118566E0,2.880840540E0,-2.577851415E-1,9.688322544E-1,3.050300204E0
2.508137873E0,2.514932156E0,-3.781255782E-1,1.136820197E0,2.785717656E0
2.510133912E0,2.337170362E0,-4.105014503E-1,1.218065262E0,2.667313204E0
2.512133873E0,2.005470514E0,-4.202753007E-1,1.377501130E0,2.469018565E0
2.514132066E0,1.652390480E0,-3.836233616E-1,1.515556693E0,2.274746859E0
2.516132450E0,1.432479024E0,-3.689626157E-1,1.580919266E0,2.165048565E0
2.518130796E0,1.081842303E0,-3.726277947E-1,1.701259732E0,2.050248502E0
2.520130950E0,7.275404930E-1,-3.622430861E-1,1.853365183E0,2.023733610E0
2.522129143E0,5.571091175E-1,-2.706133127E-1,1.907732129E0,2.005752729E0
2.524129104E0,2.528982162E-1,6.719517522E-3,2.027461767E0,2.043184739E0
2.526127681E0,-1.343903542E-1,9.162978828E-2,2.189951897E0,2.195984084E0
2.528160258E0,-3.457497358E-1,7.880161703E-2,2.278527260E0,2.305957295E0
2.530155527E0,-7.684684992E-1,-1.221730467E-2,2.447736979E0,2.565562202E0
2.532155604E0,-9.987646937E-1,-8.063421398E-2,2.524095297E0,2.715711667E0
2.534154219E0,-1.460578799E0,-2.419026345E-1,2.657263756E0,3.041851078E0
2.536154066E0,-1.944384098E0,-4.508185387E-1,2.792264938E0,3.432289376E0
2.538152719E0,-2.160630465E0,-5.668829679E-1,2.863736153E0,3.631895518E0
2.540152412E0,-2.598620653E0,-8.833111525E-1,3.006067753E0,4.070566450E0
2.542150527E0,-3.049439192E0,-1.189965487E0,3.139236450E0,4.535405465E0
2.544150758E0,-3.291342020E0,-1.317636371E0,3.203988314E0,4.778560349E0
2.546149027E0,-3.783088446E0,-1.513113260E0,3.341432810E0,5.269387360E0
2.548169835E0,-4.308432579E0,-1.690264106E0,3.495370865E0,5.799758747E0
2.550165642E0,-4.575991631E0,-1.773952723E0,3.581502914E0,6.075670398E0
2.552165373E0,-5.071403027E0,-1.908953905E0,3.769649506E0,6.601021971E0
2.554163412E0,-5.548489094E0,-2.021353006E0,3.948632956E0,7.103752629E0
2.556163796E0,-5.783061504E0,-2.059837580E0,4.035986900E0,7.346830710E0
2.558169142E0,-6.205169201E0,-2.087326527E0,4.213137627E0,7.785344276E0
2.560169412E0,-6.577186108E0,-2.017076969E0,4.395175457E0,8.163672206E0
2.562167758E0,-6.740287304E0,-1.938275456E0,4.485583305E0,8.325193227E0
2.564167412E0,-7.030447960E0,-1.717753053E0,4.657847404E0,8.606591457E0
2.566165873E0,-7.275404930E0,-1.439809442E0,4.810564041E0,8.840027970E0
2.568183219E0,-7.385360718E0,-1.295034289E0,4.876537323E0,8.944343632E0
2.570178912E0,-7.608937263E0,-9.944885969E-1,5.007873058E0,9.163172290E0
2.572178796E0,-7.816020966E0,-7.061602473E-1,5.136765957E0,9.379510143E0
2.574177604E0,-7.926587582E0,-5.784893632E-1,5.203350067E0,9.499489068E0
2.576177758E0,-8.130005836E0,-3.536909819E-1,5.331631660E0,9.728740328E0
2.578176104E0,-8.235074043E0,-2.645046413E-1,5.381722927E0,9.841206677E0
2.580175835E0,-8.436049461E0,-1.582140923E-1,5.462967873E0,1.005166554E1
2.582175065E0,-8.639467239E0,-9.834930301E-2,5.531995773E0,1.025929062E1
2.584175296E0,-8.739038467E0,-1.209513173E-1,5.571702003E0,1.036480997E1
2.586173758E0,-8.965058327E0,-2.089159191E-1,5.648059845E0,1.059794776E1
2.588208027E0,-9.241780281E0,-4.178318381E-1,5.731137753E0,1.088260199E1
2.590203488E0,-9.398772240E0,-5.809328556E-1,5.773287296E0,1.104559862E1
2.592203796E0,-9.702983856E0,-9.724974632E-1,5.874080181E0,1.138413216E1
2.594202527E0,-9.939999580E0,-1.379944563E0,5.982814312E0,1.168340300E1
2.596202796E0,-1.003895950E1,-1.603521228E0,6.037181377E0,1.182368586E1
2.598201450E0,-1.022832775E1,-2.147802114E0,6.138584614E0,1.212080705E1
2.600201527E0,-1.044762802E1,-2.828917027E0,6.233880043E0,1.249067505E1
2.602199719E0,-1.057652092E1,-3.213762045E0,6.291301250E0,1.271894385E1
2.604199181E0,-1.081231499E1,-3.995058775E0,6.408587456E0,1.318850421E1
2.606203873E0,-1.102672863E1,-4.798346519E0,6.536869049E0,1.368734929E1
2.608216796E0,-1.111958027E1,-5.187467575E0,6.603453159E0,1.393414794E1
2.610212027E0,-1.128268147E1,-5.888741016E0,6.732956886E0,1.439822490E1
2.612211681E0,-1.133460426E1,-6.404311180E0,6.859405994E0,1.471529497E1
2.614209796E0,-1.133704853E1,-6.587570667E0,6.923546791E0,1.482768549E1
2.616249758E0,-1.128390312E1,-6.754336834E0,7.069543362E0,1.493070591E1
2.618245181E0,-1.117761230E1,-6.654766083E0,7.269907475E0,1.490223081E1
2.620244758E0,-1.109209156E1,-6.535647392E0,7.398799896E0,1.484895356E1
2.622242719E0,-1.094731617E1,-6.447072029E0,7.739662647E0,1.487651999E1
2.624241950E0,-1.087767696E1,-6.652322292E0,8.092131615E0,1.510165031E1
2.626239950E0,-1.082392120E1,-6.834360600E0,8.261342049E0,1.523533811E1
2.628259450E0,-1.073962212E1,-7.324274063E0,8.543560982E0,1.555560696E1
2.630254027E0,-1.032240105E1,-7.250970364E0,8.729875565E0,1.534077123E1
2.632253142E0,-1.001696873E1,-6.998682976E0,8.761029243E0,1.503585246E1
2.634251219E0,-9.446419716E0,-6.397591591E0,8.732929230E0,1.436760511E1
2.636250758E0,-8.988882065E0,-5.791002750E0,8.624195099E0,1.373726518E1
2.638248988E0,-8.767748833E0,-5.487402439E0,8.548448563E0,1.341868019E1
2.640248411E0,-8.415890694E0,-5.166087151E0,8.360912323E0,1.293910845E1
2.642246027E0,-8.260119438E0,-5.092783451E0,8.252789497E0,1.273870287E1
2.644245488E0,-7.929030895E0,-5.010927677E0,8.053647041E0,1.236285395E1
2.646243257E0,-7.570453167E0,-5.026199341E0,7.856338024E0,1.201234732E1
2.648274488E0,-7.426899433E0,-5.070181370E0,7.775092602E0,1.188770959E1
2.650269257E0,-7.172779560E0,-5.060407639E0,7.608937263E0,1.161690227E1
2.652268642E0,-7.106806278E0,-5.026199341E0,7.466605663E0,1.146819844E1
2.654273450E0,-7.086036682E0,-5.125770092E0,7.393301964E0,1.145191464E1
2.656273373E0,-7.122077942E0,-5.309640884E0,7.230812073E0,1.145429717E1
2.658271911E0,-7.095199585E0,-5.392718315E0,7.062823772E0,1.137131248E1
2.660271873E0,-7.064656734E0,-5.279708385E0,6.978524685E0,1.124653290E1
2.662270527E0,-7.090923786E0,-5.126992226E0,6.786101818E0,1.107332052E1
2.664270296E0,-7.084815025E0,-4.844772339E0,6.541755676E0,1.079170933E1
2.666268719E0,-7.042054653E0,-4.705494881E0,6.388428688E0,1.060868686E1
2.668289296E0,-7.059769630E0,-4.435492516E0,6.097045898E0,1.032898397E1
2.670284719E0,-7.046330452E0,-4.099516869E0,5.798943996E0,1.000422725E1
2.672285180E0,-7.048163414E0,-3.898541927E0,5.662109852E0,9.845543390E0
2.674284180E0,-6.963253021E0,-3.452610254E0,5.438533306E0,9.486045263E0
2.676284565E0,-6.877120972E0,-2.940094471E0,5.206404686E0,9.112935757E0
2.678283104E0,-6.835582256E0,-2.685974598E0,5.112331390E0,8.948495771E0
2.680283565E0,-6.669426918E0,-2.152078152E0,4.897306442E0,8.549637780E0
2.682282219E0,-6.454401970E0,-1.653001308E0,4.658458233E0,8.129757144E0
2.684282219E0,-6.342002869E0,-1.405600905E0,4.533230782E0,7.921293809E0
2.686281142E0,-6.087882996E0,-9.712757468E-1,4.261395931E0,7.494343949E0
2.688298103E0,-5.845369339E0,-6.352998614E-1,4.005443573E0,7.114458998E0
2.690293373E0,-5.733581066E0,-4.929682612E-1,3.871052980E0,6.935562034E0
2.692293527E0,-5.549710751E0,-2.895501256E-1,3.616933107E0,6.630636002E0
2.694292142E0,-5.479461193E0,-2.162462920E-1,3.508199215E0,6.509893944E0
2.696292103E0,-5.366451263E0,-1.441642046E-1,3.304780960E0,6.304058984E0
2.698290411E0,-5.353012085E0,-1.918116808E-1,3.127629995E0,6.202709044E0
2.700290757E0,-5.366451263E0,-2.406809032E-1,3.048217535E0,6.176435590E0
2.702296565E0,-5.370727062E0,-3.048217595E-1,2.918103218E0,6.119881688E0
2.704297065E0,-5.398216248E0,-3.854559660E-1,2.835025549E0,6.109556843E0
2.706295565E0,-5.429981232E0,-4.709770977E-1,2.783102036E0,6.119818016E0
2.708330642E0,-5.546045780E0,-6.982190013E-1,2.695748329E0,6.205899824E0
2.710325950E0,-5.682268620E0,-1.030529618E0,2.654820442E0,6.355960945E0
2.712326026E0,-5.734802723E0,-1.207069755E0,2.646879196E0,6.430470367E0
2.714324796E0,-5.701205254E0,-1.472185254E0,2.790432453E0,6.515948438E0
2.716324796E0,-5.601023197E0,-1.744631171E0,2.935207605E0,6.559774574E0
2.718323526E0,-5.574756145E0,-1.906510472E0,2.993239641E0,6.608492401E0
2.720323603E0,-5.510615349E0,-2.258979559E0,3.119688749E0,6.723267663E0
2.722322296E0,-5.401881218E0,-2.470949888E0,3.273626804E0,6.782517711E0
2.724322296E0,-5.316971302E0,-2.627331495E0,3.354261160E0,6.813524972E0
2.726320296E0,-5.124548435E0,-2.911383867E0,3.509420872E0,6.859532604E0
2.728347949E0,-4.960225582E0,-3.162449360E0,3.718947649E0,6.959561437E0
2.730343219E0,-4.878980637E0,-3.284011602E0,3.839287996E0,7.023483222E0
2.732343026E0,-4.682892799E0,-3.565620422E0,4.070806026E0,7.156437359E0
2.734341334E0,-4.458705425E0,-3.833790302E0,4.278500080E0,7.272108710E0
2.736341142E0,-4.338365078E0,-3.952298164E0,4.366464615E0,7.314922116E0
2.738339142E0,-4.095851421E0,-4.133725166E0,4.532009125E0,7.375824654E0
2.740338834E0,-3.851505280E0,-4.236961365E0,4.720766544E0,7.421022254E0
2.742337065E0,-3.828292608E0,-4.408003807E0,4.817893982E0,7.569572265E0
2.744336872E0,-3.929696083E0,-4.926628113E0,5.155702591E0,8.142201488E0
2.746335026E0,-4.100738525E0,-5.319414616E0,5.525887012E0,8.697566072E0
2.748353103E0,-4.181983471E0,-5.440365791E0,5.665775299E0,8.898740104E0
2.750348834E0,-4.301102161E0,-5.603466988E0,5.871636868E0,9.185556139E0
2.752348757E0,-4.328591347E0,-5.652946949E0,5.953492641E0,9.280979845E0
2.754347065E0,-4.316984653E0,-5.696929455E0,6.081774235E0,9.385059379E0
2.756346911E0,-4.192368031E0,-5.643784046E0,6.208223343E0,9.379247578E0
2.758345334E0,-4.098905563E0,-5.593693256E0,6.260757923E0,9.342779075E0
2.760345065E0,-3.844175100E0,-5.436089993E0,6.339559555E0,9.193409159E0
2.762343526E0,-3.477655888E0,-5.341405869E0,6.400646210E0,9.032883207E0
2.764343680E0,-3.527746677E0,-4.698775291E0,6.491664886E0,8.755866540E0
2.766341949E0,-3.040887117E0,-4.139833927E0,6.431800365E0,8.231237777E0
2.768373257E0,-2.752558708E0,-3.491094828E0,6.227771282E0,7.651761737E0
2.770368565E0,-2.719572067E0,-3.103195429E0,6.178291321E0,7.429480314E0
2.772368295E0,-2.507601738E0,-2.618779421E0,6.269920826E0,7.242788089E0
2.774367180E0,-2.136195660E0,-2.544864655E0,6.439741611E0,7.246374268E0
2.776407526E0,-2.021353006E0,-2.398257017E0,6.484334469E0,7.203061724E0
2.778402949E0,-1.877188921E0,-1.923614621E0,6.444628239E0,6.982647391E0
2.780403103E0,-1.752572417E0,-1.553430319E0,6.318789959E0,6.738825000E0
2.782401718E0,-1.704313993E0,-1.467909217E0,6.243653774E0,6.636464127E0
2.784401603E0,-1.621847272E0,-1.466076612E0,6.109874249E0,6.489247456E0
2.786400065E0,-1.575421453E0,-1.574199796E0,5.954103470E0,6.356996608E0
2.788419642E0,-1.561371565E0,-1.604132175E0,5.844758511E0,6.258779693E0
2.790414834E0,-1.563204169E0,-1.533882618E0,5.590638638E0,6.004302086E0
2.792414757E0,-1.576643229E0,-1.348179579E0,5.350568771E0,5.738639057E0
2.794412911E0,-1.572367191E0,-1.243721604E0,5.242445469E0,5.612701356E0
2.796412642E0,-1.525330544E0,-1.056185961E0,5.032918930E0,5.363994315E0
2.798417988E0,-1.397659659E0,-8.680394888E-1,4.791626930E0,5.066224799E0
2.800417295E0,-1.332907915E0,-7.703011036E-1,4.691444874E0,4.937576562E0
2.802415372E0,-1.169196129E0,-5.021312237E-1,4.507574558E0,4.683736089E0
2.804415372E0,-1.069625020E0,-3.726277947E-1,4.413501263E0,4.556527466E0
2.806413834E0,-8.442157507E-1,-6.230825558E-2,4.226576805E0,4.310514359E0
2.808430257E0,-7.391469479E-1,1.594358236E-1,4.032321453E0,4.102605793E0
2.810425103E0,-6.420193911E-1,3.164281845E-1,3.926641703E0,3.991344480E0
2.812424911E0,-5.687155724E-1,4.941899776E-1,3.715893269E0,3.791506814E0
2.814422949E0,-5.381723046E-1,6.670648456E-1,3.497203588E0,3.600699637E0
2.816422872E0,-5.216789246E-1,7.165449262E-1,3.400075912E0,3.513702000E0
2.818421488E0,-5.650503635E-1,7.880161405E-1,3.200933933E0,3.344582096E0
2.820421257E0,-6.884451509E-1,8.625417352E-1,2.983465910E0,3.181038165E0
2.822420141E0,-7.861835957E-1,8.930850029E-1,2.873510122E0,3.110103839E0
2.824420064E0,-1.075733662E0,9.254608750E-1,2.610227108E0,2.971021087E0
2.826418526E0,-1.502117634E0,7.470881939E-1,2.043955088E0,2.644286398E0
2.828453603E0,-1.737911582E0,6.236934066E-1,1.629788518E0,2.462831855E0
2.830448718E0,-2.182621479E0,6.065891981E-1,1.230893493E0,2.578155497E0
2.832448641E0,-2.588236094E0,7.648032904E-1,1.015258074E0,2.883511593E0
2.834447064E0,-2.764775991E0,8.442157507E-1,9.156870246E-1,3.032353746E0
2.836447334E0,-3.059213161E0,9.242390990E-1,7.458664775E-1,3.281664194E0
2.838445834E0,-3.238807440E0,8.888089061E-1,5.784893632E-1,3.408005993E0
2.840445641E0,-3.296839714E0,8.252789378E-1,5.009095073E-1,3.435279866E0
2.842443641E0,-3.334102392E0,6.279694438E-1,4.074471295E-1,3.417103678E0
2.844443487E0,-3.236364126E0,3.286454976E-1,4.245513380E-1,3.280595138E0
2.846448603E0,-3.174055815E0,1.429424733E-1,4.673119187E-1,3.211455012E0
2.848465911E0,-2.875342607E0,-2.895501256E-1,6.035348773E-1,2.952234532E0
2.850460949E0,-2.511877775E0,-7.538077235E-1,8.381071091E-1,2.753212590E0
2.852460911E0,-2.295631647E0,-1.007316828E0,9.871582389E-1,2.694270447E0
2.854458949E0,-1.942551494E0,-1.511280656E0,1.339016676E0,2.801863877E0
2.856458911E0,-1.705535769E0,-2.035403013E0,1.709200978E0,3.158019264E0
2.858457295E0,-1.666440368E0,-2.300518513E0,1.877188921E0,3.404885780E0
2.860456834E0,-1.624901533E0,-2.861903667E0,2.117259026E0,3.913257387E0
2.862455103E0,-1.643227458E0,-3.147788525E0,2.201558352E0,4.177993328E0
2.864454757E0,-1.726916075E0,-3.708562851E0,2.348165989E0,4.716944038E0
2.866453064E0,-1.867415071E0,-4.195422649E0,2.469728231E0,5.214246618E0
2.868472795E0,-1.943773150E0,-4.386623383E0,2.525927782E0,5.422271657E0
2.870468103E0,-2.084272146E0,-4.678617001E0,2.626720667E0,5.756154001E0
2.872468026E0,-2.256536245E0,-4.934569359E0,2.704300404E0,6.062604330E0
2.874466449E0,-2.357939959E0,-5.028642654E0,2.733011007E0,6.190030449E0
2.876466372E0,-2.538755894E0,-5.075679302E0,2.785545588E0,6.321951130E0
2.878464834E0,-2.706743956E0,-4.994434357E0,2.846021175E0,6.353792089E0
2.880464641E0,-2.789821625E0,-4.932736874E0,2.878396988E0,6.356112568E0
2.882462833E0,-2.943148851E0,-4.713436127E0,2.938872576E0,6.286141686E0
2.884462718E0,-3.079982519E0,-4.408003807E0,2.962085485E0,6.139278484E0
2.886461564E0,-3.139236450E0,-4.268726349E0,2.968805075E0,6.073766023E0
2.888492718E0,-3.222314119E0,-4.022547722E0,2.999348402E0,5.963244863E0
2.890488026E0,-3.259577036E0,-3.819129467E0,3.039665461E0,5.869425734E0
2.892487641E0,-3.258355141E0,-3.737884521E0,3.059213161E0,5.826443520E0
2.894492333E0,-3.219870806E0,-3.583335638E0,3.082426071E0,5.719196865E0
2.896491987E0,-3.120299578E0,-3.450777769E0,3.085480452E0,5.582501794E0
2.898490064E0,-3.048828363E0,-3.391523838E0,3.075706482E0,5.500705291E0
2.900489680E0,-2.905885935E0,-3.310278654E0,3.042109013E0,5.353180837E0
2.902488295E0,-2.751947880E0,-3.260187864E0,2.987131119E0,5.208166123E0
2.904488180E0,-2.681698322E0,-3.247359753E0,2.953533411E0,5.143948956E0
2.906486987E0,-2.574186087E0,-3.230866194E0,2.860682011E0,5.024781780E0
2.908506141E0,-2.461786985E0,-3.197268724E0,2.754391432E0,4.885651913E0
2.910501680E0,-2.409863472E0,-3.181997061E0,2.707354784E0,4.823102443E0
2.912501910E0,-2.299907684E0,-3.150842905E0,2.603507757E0,4.689950854E0
2.914500872E0,-2.240653753E0,-3.132516861E0,2.551584244E0,4.619932173E0
2.916501141E0,-2.112982988E0,-3.057991505E0,2.453845739E0,4.453916037E0
2.918499487E0,-2.006081581E0,-2.985909224E0,2.370768070E0,4.308196658E0
2.920499718E0,-1.973094702E0,-2.912605524E0,2.339613914E0,4.224945788E0
2.922497833E0,-1.936442852E0,-2.704300404E0,2.277305603E0,4.031026222E0
2.924497795E0,-1.866804242E0,-2.489275932E0,2.228436470E0,3.827189811E0
2.926496218E0,-1.856419444E0,-2.392148256E0,2.208277941E0,3.747687006E0
2.928509295E0,-1.821600199E0,-2.162462950E0,2.165517330E0,3.561451755E0
2.930504756E0,-1.847256541E0,-1.907732129E0,2.099543810E0,3.385244868E0
2.932504756E0,-1.813658953E0,-1.788613439E0,2.056783199E0,3.273966090E0
2.934503449E0,-1.790446043E0,-1.603521228E0,1.975538254E0,3.111226246E0
2.936544141E0,-1.805106759E0,-1.345736146E0,1.877799749E0,2.931816516E0
2.938538833E0,-1.766011477E0,-1.213789225E0,1.816102386E0,2.808969329E0
2.940538449E0,-1.665829539E0,-9.902125597E-1,1.701259732E0,2.578719381E0
2.942543526E0,-1.567480206E0,-8.704829812E-1,1.603521228E0,2.405413716E0
2.944543218E0,-1.472185254E0,-7.922922373E-1,1.550986886E0,2.280486074E0
2.946541449E0,-1.111774802E0,-6.579018831E-1,1.452026725E0,1.943517355E0
2.948576949E0,-6.200281978E-1,-5.467243791E-1,1.367727280E0,1.598130290E0
2.950571910E0,-5.522221923E-1,-4.807509482E-1,1.340238333E0,1.527190104E0
2.952571949E0,2.449569702E-1,-6.053674817E-1,1.297477722E0,1.452557105E0
2.954570218E0,7.318165898E-1,-8.460483551E-1,1.357953429E0,1.759372290E0
2.956569949E0,1.006705880E0,-9.217956662E-1,1.385442376E0,1.944894485E0
2.958568218E0,1.315192819E0,-1.014036298E0,1.421483397E0,2.186004760E0
2.960568410E0,1.469130874E0,-1.087340117E0,1.498452425E0,2.363474925E0
2.962566872E0,1.486235142E0,-1.111163855E0,1.572978020E0,2.432661065E0
2.964566756E0,1.484402537E0,-1.207069755E0,1.673770785E0,2.542041881E0
2.966565064E0,1.339627504E0,-1.374446750E0,1.707368374E0,2.568815385E0
2.968580141E0,1.230282545E0,-1.425759435E0,1.721418262E0,2.551404699E0
2.970575372E0,1.009149432E0,-1.506393671E0,1.773341775E0,2.536206916E0
2.972575487E0,8.747590184E-1,-1.515556693E0,1.803885102E0,2.513188591E0
2.974573718E0,6.585127115E-1,-1.594969153E0,1.811215401E0,2.501612844E0
2.976573102E0,6.407976151E-1,-1.671327353E0,1.689042449E0,2.461060970E0
2.978571333E0,7.232644558E-1,-1.690264106E0,1.583973527E0,2.426741922E0
2.980570949E0,9.877691269E-1,-1.686598897E0,1.327410221E0,2.362693713E0
2.982569333E0,1.365283847E0,-1.631010175E0,1.025642753E0,2.361384600E0
2.984568910E0,1.578475833E0,-1.586417079E0,8.607091308E-1,2.397733370E0
2.986567256E0,2.009746552E0,-1.478904724E0,5.430592299E-1,2.553654971E0
2.988590102E0,2.360994101E0,-1.343903542E0,2.370157093E-1,2.727003175E0
2.990585718E0,2.548529863E0,-1.254106402E0,1.007927656E-1,2.842172851E0
2.992585679E0,2.904664278E0,-1.050077319E0,-1.246165112E-1,3.091159365E0
2.994584179E0,3.179553509E0,-7.495316267E-1,-3.084869385E-1,3.281237932E0
2.996584256E0,3.295618057E0,-6.041457057E-1,-3.897320330E-1,3.373126364E0
2.998583372E0,3.549127102E0,-4.269948006E-1,-5.479460955E-1,3.616472407E0
3.000583564E0,3.737884521E0,-5.974262357E-1,-6.719517708E-1,3.844504908E0
3.002581987E0,3.782477617E0,-7.684684992E-1,-7.281513810E-1,3.927834670E0
3.004582487E0,3.720169306E0,-1.163698316E0,-8.234463334E-1,3.983957492E0
3.006581256E0,3.506977320E0,-1.500285029E0,-8.258898258E-1,3.902798880E0
3.008610718E0,3.327383041E0,-1.624901533E0,-7.794640660E-1,3.784091321E0
3.010606064E0,2.872899294E0,-1.796554685E0,-6.133087277E-1,3.443444015E0
3.012606218E0,2.366492033E0,-1.896736622E0,-3.958406746E-1,3.058526474E0
3.014604679E0,2.089770079E0,-1.954768777E0,-2.877175212E-1,2.875941815E0
3.016604641E0,1.530828357E0,-2.039068222E0,-7.513642311E-2,2.550858709E0
3.018602910E0,1.041525245E0,-2.010968447E0,1.099557430E-1,2.267346289E0
3.020602987E0,8.374962807E-1,-1.938275456E0,1.936442852E-1,2.120332491E0
3.022601179E0,5.216789246E-1,-1.685988069E0,3.176499307E-1,1.793211127E0
3.024600679E0,4.282165468E-1,-1.533271790E0,3.286454976E-1,1.625515197E0
3.026598718E0,2.828305960E-1,-1.183246017E0,3.292563558E-1,1.260346789E0
3.028617410E0,1.857030392E-1,-8.814785480E-1,3.231477141E-1,9.570342181E-1
3.030612448E0,1.398881376E-1,-7.391469479E-1,3.292563558E-1,8.211678570E-1
3.032612141E0,5.864306539E-2,-4.636467099E-1,3.475823104E-1,5.824265990E-1
3.034610064E0,-6.536258012E-2,-2.315179259E-1,3.439171314E-1,4.197044319E-1
3.036610218E0,-1.264491081E-1,-1.264491081E-1,3.310889602E-1,3.762959652E-1
3.038615679E0,-2.443460971E-1,8.552113548E-3,2.651155293E-1,3.606444200E-1
3.040615564E0,-4.783074856E-1,2.626720667E-1,2.828305960E-1,6.146281896E-1
3.042614025E0,-5.589417219E-1,3.420845270E-1,2.913827300E-1,7.171761063E-1
3.044613833E0,-7.605272532E-1,4.489859641E-1,2.516764700E-1,9.183306291E-1
3.046612141E0,-9.230173826E-1,4.575380683E-1,2.480112910E-1,1.059628130E0
3.048626064E0,-9.969320893E-1,4.392121136E-1,2.522873580E-1,1.118226177E0
3.050621294E0,-1.117272496E0,3.995058835E-1,2.565633953E-1,1.213971811E0
3.052621679E0,-1.206458807E0,3.652974069E-1,2.449569702E-1,1.284129653E0
3.054619833E0,-1.237002134E0,3.494149148E-1,2.376265824E-1,1.307184553E0
3.056619487E0,-1.258993268E0,3.115412891E-1,2.186897546E-1,1.315274584E0
3.058618179E0,-1.220508814E0,2.467895597E-1,1.850921661E-1,1.258890766E0
3.060617948E0,-1.173472166E0,1.802052408E-1,1.618792862E-1,1.198213569E0
3.062616371E0,-1.158811331E0,8.552113175E-2,1.319468915E-1,1.169430437E0
3.064616256E0,-1.184467673E0,2.443460980E-3,1.319468915E-1,1.191796804E0
3.066614679E0,-1.207069755E0,-7.513642311E-2,1.374446750E-1,1.217190993E0
3.068609833E0,-1.218065262E0,-3.830125034E-1,1.673770845E-1,1.287787501E0
3.070605140E0,-1.202793717E0,-9.511171579E-1,2.907718420E-1,1.560732148E0
3.072605410E0,-1.185078621E0,-1.282206178E0,3.909537494E-1,1.789220180E0
3.074603833E0,-1.126435518E0,-1.913229942E0,6.322455406E-1,2.308471402E0
3.076603602E0,-1.061683774E0,-2.211332083E0,7.495316267E-1,2.564948279E0
3.078602256E0,-9.120218158E-1,-2.722626448E0,8.985827565E-1,3.008642474E0
3.080601871E0,-8.271115422E-1,-3.042719841E0,9.352346659E-1,3.288908849E0
3.082600140E0,-8.069530129E-1,-3.128240824E0,9.327912331E-1,3.362612571E0
3.084600025E0,-8.405506015E-1,-3.170390606E0,9.352346659E-1,3.410654745E0
3.086605256E0,-9.334021211E-1,-3.055547953E0,9.645562172E-1,3.337361459E0
3.088620102E0,-9.896016717E-1,-2.963918209E0,9.810495973E-1,3.275145940E0
3.090615563E0,-1.105666041E0,-2.732400179E0,1.013425469E0,3.116975989E0
3.092615717E0,-1.218065262E0,-2.456289053E0,1.047633886E0,2.935059736E0
3.094614602E0,-1.262658477E0,-2.305405378E0,1.067181587E0,2.836913275E0
3.096655602E0,-1.351844788E0,-1.975538254E0,1.124602914E0,2.644800075E0
3.098651140E0,-1.423316002E0,-1.633453608E0,1.183246017E0,2.468617075E0
3.100651294E0,-1.452026725E0,-1.461189628E0,1.208902359E0,2.388493595E0
3.102649640E0,-1.486845970E0,-1.145983219E0,1.255328059E0,2.258281872E0
3.104649910E0,-1.518000126E0,-8.674286604E-1,1.269988894E0,2.160932358E0
3.106648756E0,-1.534493446E0,-7.440338731E-1,1.269377947E0,2.125929659E0
3.108669986E0,-1.569923639E0,-5.229006410E-1,1.238223910E0,2.066708438E0
3.110665410E0,-1.601077795E0,-3.390302062E-1,1.187522054E0,2.022028737E0
3.112665333E0,-1.617571115E0,-2.620611787E-1,1.162476540E0,2.009120225E0
3.114663525E0,-1.653001308E0,-1.252273768E-1,1.096503139E0,1.987564931E0
3.116663756E0,-1.692707539E0,-1.893682219E-2,1.039692640E0,1.986599658E0
3.118662640E0,-1.723861694E0,2.748893574E-2,1.014036298E0,2.000181091E0
3.120662910E0,-1.775785327E0,1.246165112E-1,9.663888216E-1,2.025549347E0
3.122662025E0,-1.820378423E0,2.290744632E-1,9.425650835E-1,2.062687967E0
3.124662486E0,-1.830152273E0,2.748893499E-1,9.517280459E-1,2.081059291E0
3.126661563E0,-1.871691108E0,3.543018401E-1,9.663888216E-1,2.136039501E0
3.128691833E0,-1.915673375E0,4.031710625E-1,9.560040832E-1,2.178599365E0
3.130687448E0,-1.944994926E0,4.221078753E-1,9.425650835E-1,2.202182840E0
3.132687486E0,-2.010968447E0,4.593706727E-1,9.156870246E-1,2.256877984E0
3.134692948E0,-2.058005095E0,4.770857692E-1,9.004153609E-1,2.296463286E0
3.136692871E0,-2.145358801E0,5.198463202E-1,8.729264140E-1,2.373774443E0
3.138691909E0,-2.230879784E0,5.497786999E-1,8.491026759E-1,2.449501293E0
3.140692333E0,-2.278527260E0,5.485569835E-1,8.319984674E-1,2.486930375E0
3.142690794E0,-2.335948706E0,5.387831330E-1,7.990117669E-1,2.526927665E0
3.144691371E0,-2.373211384E0,5.253441334E-1,7.525860071E-1,2.544504751E0
3.146689909E0,-2.406198263E0,5.186246037E-1,7.257078886E-1,2.566206052E0
3.148709486E0,-2.470949888E0,5.064072609E-1,6.646214128E-1,2.608402439E0
3.150705486E0,-2.539366722E0,5.100724697E-1,5.943718553E-1,2.657411367E0
3.152705525E0,-2.587625265E0,5.931501389E-1,5.552765131E-1,2.712187974E0
3.154704602E0,-2.787988901E0,1.307862520E0,4.728097022E-1,3.115595529E0
3.156705217E0,-3.032945871E0,1.986533761E0,3.707951903E-1,3.644525499E0
3.158704140E0,-3.139847279E0,2.086104870E0,3.213151097E-1,3.783347441E0
3.160704371E0,-3.335324287E0,2.154521704E0,2.309070677E-1,3.977394869E0
3.162703025E0,-3.554624796E0,2.383596182E0,1.527163088E-1,4.282547194E0
3.164703217E0,-3.702454329E0,2.392148256E0,1.288925707E-1,4.409892814E0
3.166701794E0,-3.989560843E0,2.436741352E0,8.185594529E-2,4.675575315E0
3.168715832E0,-4.337754250E0,2.180788994E0,4.153883830E-2,4.855273220E0
3.170712217E0,-4.595539093E0,1.931555867E0,2.443460934E-2,4.985026045E0
3.172713140E0,-5.178915501E0,1.452637553E0,-1.466076635E-2,5.378804380E0
3.174712332E0,-5.799554825E0,8.875871897E-1,-9.407325089E-2,5.867835799E0
3.176712755E0,-6.077498436E0,6.737843752E-1,-1.435533315E-1,6.116418902E0
3.178711448E0,-6.541755676E0,3.891211748E-1,-2.150245607E-1,6.556845139E0
3.180711717E0,-6.857573032E0,2.871066630E-1,-2.351831198E-1,6.867608698E0
3.182717986E0,-6.992574692E0,2.755002379E-1,-2.449569702E-1,7.002285707E0
3.184718525E0,-7.257689953E0,2.565633953E-1,-3.054326177E-1,7.268643430E0
3.186717563E0,-7.507534027E0,2.394591719E-1,-4.056145251E-1,7.522295594E0
3.188753255E0,-7.607715607E0,2.486221492E-1,-4.642575979E-1,7.625921901E0
3.190749102E0,-7.787310123E0,2.981022298E-1,-5.644394755E-1,7.813427917E0
3.192749602E0,-7.856338024E0,3.341432810E-1,-6.017022729E-1,7.886427867E0
3.194748717E0,-7.968737125E0,4.074471295E-1,-6.579018831E-1,8.006223793E0
3.196749178E0,-8.060977936E0,4.673119187E-1,-6.847799420E-1,8.103497349E0
3.198748255E0,-8.095186234E0,5.002986193E-1,-6.957755089E-1,8.140420285E0
3.200749025E0,-8.143445015E0,5.815436840E-1,-7.110471725E-1,8.195088642E0
3.202748063E0,-8.160549164E0,6.835582256E-1,-7.202101350E-1,8.220737019E0
3.204748255E0,-8.163602829E0,7.495316267E-1,-7.202101350E-1,8.229514654E0
3.206746486E0,-8.148941994E0,9.016370773E-1,-7.067710757E-1,8.229078344E0
3.208762255E0,-8.128784180E0,1.072679400E0,-6.737843752E-1,8.226892410E0
3.210757755E0,-8.111680031E0,1.160033107E0,-6.493497491E-1,8.219895670E0
3.212757678E0,-8.070751190E0,1.331686258E0,-5.882632136E-1,8.201004004E0
3.214756255E0,-8.024326324E0,1.494787216E0,-5.033529401E-1,8.177870503E0
3.216756063E0,-7.997447968E0,1.574199796E0,-4.563163519E-1,8.163669739E0
3.218754794E0,-7.932695866E0,1.715309620E0,-3.488040566E-1,8.123522331E0
3.220754563E0,-7.842898846E0,1.825876236E0,-2.229658216E-1,8.055718471E0
3.222752948E0,-7.778147221E0,1.858252048E0,-1.545489132E-1,7.998534880E0
3.224752678E0,-7.614435196E0,1.897347450E0,-3.054326167E-3,7.847264493E0
3.226751063E0,-7.397578239E0,1.893071413E0,1.594358236E-1,7.637624170E0
3.228770371E0,-7.279681206E0,1.880243182E0,2.419026345E-1,7.522472317E0
3.230765371E0,-7.032280922E0,1.855808616E0,4.074471295E-1,7.284436406E0
3.232765717E0,-6.789767265E0,1.841758728E0,5.723807216E-1,7.058373355E0
3.234763948E0,-6.682254791E0,1.844202161E0,6.481280327E-1,6.962304263E0
3.236763717E0,-6.495330334E0,1.868025899E0,7.794640660E-1,6.803410993E0
3.238761486E0,-6.327952862E0,1.925447226E0,8.808676600E-1,6.672800182E0
3.240761409E0,-6.240599155E0,1.969429493E0,9.211847782E-1,6.608502988E0
3.242759948E0,-6.064059258E0,2.064113617E0,9.889908433E-1,6.481626539E0
3.244759640E0,-5.972429276E0,2.111150265E0,1.021977544E0,6.416486967E0
3.246757524E0,-5.780006886E0,2.211332083E0,1.087950945E0,6.283478848E0
3.248786832E0,-5.573534489E0,2.299907684E0,1.157589674E0,6.139533851E0
3.250782524E0,-5.465411186E0,2.333505154E0,1.197906733E0,6.062255874E0
3.252782217E0,-5.247943401E0,2.386650562E0,1.279151797E0,5.905356905E0
3.254780909E0,-5.033529758E0,2.425135136E0,1.359175205E0,5.750222560E0
3.256820524E0,-4.930904388E0,2.453234911E0,1.397048831E0,5.681894495E0
3.258815871E0,-4.730540276E0,2.497828007E0,1.467909217E0,5.547243777E0
3.260815486E0,-4.547280788E0,2.513710499E0,1.538158655E0,5.418711571E0
3.262813332E0,-4.459316254E0,2.510656118E0,1.567480206E0,5.352185516E0
3.264812563E0,-4.311486721E0,2.491108418E0,1.618792892E0,5.235936336E0
3.266810486E0,-4.180761814E0,2.456289053E0,1.660942554E0,5.125510260E0
3.268830217E0,-4.125783920E0,2.408641577E0,1.684766293E0,5.065775820E0
3.270825063E0,-4.037208557E0,2.293798923E0,1.714087844E0,4.949612467E0
3.272824947E0,-3.981008768E0,2.126421928E0,1.732413888E0,4.834393334E0
3.274822909E0,-3.961461067E0,2.043344259E0,1.737300754E0,4.783998689E0
3.276822447E0,-3.948022127E0,1.834428310E0,1.745852828E0,4.690416617E0
3.278827601E0,-3.961461067E0,1.598023534E0,1.745852828E0,4.614634882E0
3.280827678E0,-3.976121902E0,1.467298269E0,1.745852828E0,4.583722471E0
3.282826370E0,-4.029878139E0,1.193019867E0,1.735468149E0,4.546984046E0
3.284826640E0,-4.101349354E0,9.169087410E-1,1.725083470E0,4.542873666E0
